Time,header.seq,header.stamp.secs,header.stamp.nsecs,header.frame_id,imu.header.seq,imu.header.stamp.secs,imu.header.stamp.nsecs,imu.header.frame_id,imu.orientation.x,imu.orientation.y,imu.orientation.z,imu.orientation.w,imu.orientation_covariance,imu.angular_velocity.x,imu.angular_velocity.y,imu.angular_velocity.z,imu.angular_velocity_covariance,imu.linear_acceleration.x,imu.linear_acceleration.y,imu.linear_acceleration.z,imu.linear_acceleration_covariance,mag_field.header.seq,mag_field.header.stamp.secs,mag_field.header.stamp.nsecs,mag_field.header.frame_id,mag_field.magnetic_field.x,mag_field.magnetic_field.y,mag_field.magnetic_field.z,mag_field.magnetic_field_covariance,VNYMR
1678937272.7380543,2739,1678937272,727392196,imu1_frame,38443,1678937272,1678937272,imu1_frame,0.345820511707522,-0.1849315559033401,-0.6974618898637527,0.5997961366174346,"(0.0, 0.0, 0.0, 0.0, 0.0, 0.0, 0.0, 0.0, 0.0)",0.00072,0.001521,-1e-05,"(0.0, 0.0, 0.0, 0.0, 0.0, 0.0, 0.0, 0.0, 0.0)",0.471,-0.248,-9.751,"(0.0, 0.0, 0.0, 0.0, 0.0, 0.0, 0.0, 0.0, 0.0)",38443,1678937272,1678937272,imu1_frame,0.2457,0.0148,0.5023,"(0.0, 0.0, 0.0, 0.0, 0.0, 0.0, 0.0, 0.0, 0.0)","$VNYMR,+016.479,+002.878,+001.528,+00.2457,+00.0148,+00.5023,+00.471,-00.248,-09.751,+00.000720,+00.001521,-00.000014*62
"
1678937272.7620726,2740,1678937272,752357721,imu1_frame,38444,1678937272,1678937272,imu1_frame,0.3462415732928932,-0.183738364924192,-0.6974236559571667,0.599964357516333,"(0.0, 0.0, 0.0, 0.0, 0.0, 0.0, 0.0, 0.0, 0.0)",0.000189,0.001674,-0.0022,"(0.0, 0.0, 0.0, 0.0, 0.0, 0.0, 0.0, 0.0, 0.0)",0.472,-0.264,-9.738,"(0.0, 0.0, 0.0, 0.0, 0.0, 0.0, 0.0, 0.0, 0.0)",38444,1678937272,1678937272,imu1_frame,0.2476,0.0157,0.5034,"(0.0, 0.0, 0.0, 0.0, 0.0, 0.0, 0.0, 0.0, 0.0)","$VNYMR,+016.478,+002.876,+001.529,+00.2476,+00.0157,+00.5034,+00.472,-00.264,-09.738,+00.000189,+00.001674,-00.002200*66
"
1678937272.787849,2741,1678937272,777309417,imu1_frame,38445,1678937272,1678937272,imu1_frame,0.34592723920293017,-0.18407421472418828,-0.6973390135396526,0.6001410907833727,"(0.0, 0.0, 0.0, 0.0, 0.0, 0.0, 0.0, 0.0, 0.0)",-0.00042,-0.002679,-0.00065,"(0.0, 0.0, 0.0, 0.0, 0.0, 0.0, 0.0, 0.0, 0.0)",0.503,-0.247,-9.743,"(0.0, 0.0, 0.0, 0.0, 0.0, 0.0, 0.0, 0.0, 0.0)",38445,1678937272,1678937272,imu1_frame,0.2439,0.0148,0.5066,"(0.0, 0.0, 0.0, 0.0, 0.0, 0.0, 0.0, 0.0, 0.0)","$VNYMR,+016.478,+002.877,+001.529,+00.2439,+00.0148,+00.5066,+00.503,-00.247,-09.743,-00.000420,-00.002679,-00.000656*62
"
1678937272.8127456,2742,1678937272,802223205,imu1_frame,38446,1678937272,1678937272,imu1_frame,0.34633339919133166,-0.18356522117746377,-0.6971235866129526,0.6003129943342388,"(0.0, 0.0, 0.0, 0.0, 0.0, 0.0, 0.0, 0.0, 0.0)",0.000612,0.002299,-0.00062,"(0.0, 0.0, 0.0, 0.0, 0.0, 0.0, 0.0, 0.0, 0.0)",0.48,-0.264,-9.721,"(0.0, 0.0, 0.0, 0.0, 0.0, 0.0, 0.0, 0.0, 0.0)",38446,1678937272,1678937272,imu1_frame,0.2448,0.0225,0.5033,"(0.0, 0.0, 0.0, 0.0, 0.0, 0.0, 0.0, 0.0, 0.0)","$VNYMR,+016.478,+002.876,+001.530,+00.2448,+00.0225,+00.5033,+00.480,-00.264,-09.721,+00.000612,+00.002299,-00.000624*66
"
1678937272.8374975,2743,1678937272,827246427,imu1_frame,38447,1678937272,1678937272,imu1_frame,0.34582430391290286,-0.18269511661657156,-0.6970063865771773,0.6010076058239529,"(0.0, 0.0, 0.0, 0.0, 0.0, 0.0, 0.0, 0.0, 0.0)",0.000171,-0.000995,-0.00012,"(0.0, 0.0, 0.0, 0.0, 0.0, 0.0, 0.0, 0.0, 0.0)",0.492,-0.272,-9.757,"(0.0, 0.0, 0.0, 0.0, 0.0, 0.0, 0.0, 0.0, 0.0)",38447,1678937272,1678937272,imu1_frame,0.2448,0.0235,0.5011,"(0.0, 0.0, 0.0, 0.0, 0.0, 0.0, 0.0, 0.0, 0.0)","$VNYMR,+016.476,+002.876,+001.531,+00.2448,+00.0235,+00.5011,+00.492,-00.272,-09.757,+00.000171,-00.000995,-00.000122*6D
"
1678937272.862604,2744,1678937272,852267026,imu1_frame,38448,1678937272,1678937272,imu1_frame,0.34499989680178755,-0.18216187475951737,-0.6968037348484556,0.601877626841285,"(0.0, 0.0, 0.0, 0.0, 0.0, 0.0, 0.0, 0.0, 0.0)",0.000888,-0.000651,-0.0002,"(0.0, 0.0, 0.0, 0.0, 0.0, 0.0, 0.0, 0.0, 0.0)",0.493,-0.243,-9.716,"(0.0, 0.0, 0.0, 0.0, 0.0, 0.0, 0.0, 0.0, 0.0)",38448,1678937272,1678937272,imu1_frame,0.2458,0.0138,0.5067,"(0.0, 0.0, 0.0, 0.0, 0.0, 0.0, 0.0, 0.0, 0.0)","$VNYMR,+016.474,+002.877,+001.532,+00.2458,+00.0138,+00.5067,+00.493,-00.243,-09.716,+00.000888,-00.000651,-00.000209*67
"
1678937272.8877113,2745,1678937272,877291202,imu1_frame,38449,1678937272,1678937272,imu1_frame,0.34438455820528263,-0.1821499368234694,-0.6968104881025717,0.6022257220139421,"(0.0, 0.0, 0.0, 0.0, 0.0, 0.0, 0.0, 0.0, 0.0)",0.001026,0.000556,-0.00057,"(0.0, 0.0, 0.0, 0.0, 0.0, 0.0, 0.0, 0.0, 0.0)",0.494,-0.253,-9.755,"(0.0, 0.0, 0.0, 0.0, 0.0, 0.0, 0.0, 0.0, 0.0)",38449,1678937272,1678937272,imu1_frame,0.2467,0.0128,0.5089,"(0.0, 0.0, 0.0, 0.0, 0.0, 0.0, 0.0, 0.0, 0.0)","$VNYMR,+016.473,+002.878,+001.532,+00.2467,+00.0128,+00.5089,+00.494,-00.253,-09.755,+00.001026,+00.000556,-00.000571*64
"
1678937272.9353664,2746,1678937272,902201414,imu1_frame,38450,1678937272,1678937272,imu1_frame,0.3453007924776832,-0.1825102538421914,-0.6967125668144057,0.6017050516653696,"(0.0, 0.0, 0.0, 0.0, 0.0, 0.0, 0.0, 0.0, 0.0)",0.001645,-0.001608,-0.0002,"(0.0, 0.0, 0.0, 0.0, 0.0, 0.0, 0.0, 0.0, 0.0)",0.48,-0.239,-9.716,"(0.0, 0.0, 0.0, 0.0, 0.0, 0.0, 0.0, 0.0, 0.0)",38450,1678937272,1678937272,imu1_frame,0.2467,0.0177,0.5045,"(0.0, 0.0, 0.0, 0.0, 0.0, 0.0, 0.0, 0.0, 0.0)","$VNYMR,+016.475,+002.877,+001.532,+00.2467,+00.0177,+00.5045,+00.480,-00.239,-09.716,+00.001645,-00.001608,-00.000205*61
"
1678937272.9794292,2747,1678937272,927184104,imu1_frame,38451,1678937272,1678937272,imu1_frame,0.3459156082393679,-0.18252218163493064,-0.6967057956609898,0.6013560338767713,"(0.0, 0.0, 0.0, 0.0, 0.0, 0.0, 0.0, 0.0, 0.0)",0.000661,0.00042,-0.00025,"(0.0, 0.0, 0.0, 0.0, 0.0, 0.0, 0.0, 0.0, 0.0)",0.514,-0.232,-9.755,"(0.0, 0.0, 0.0, 0.0, 0.0, 0.0, 0.0, 0.0, 0.0)",38451,1678937272,1678937272,imu1_frame,0.2439,0.011,0.5055,"(0.0, 0.0, 0.0, 0.0, 0.0, 0.0, 0.0, 0.0, 0.0)","$VNYMR,+016.476,+002.876,+001.532,+00.2439,+00.0110,+00.5055,+00.514,-00.232,-09.755,+00.000661,+00.000420,-00.000254*64
"
1678937272.9794698,2748,1678937272,952900171,imu1_frame,38452,1678937272,1678937272,imu1_frame,0.3437821603913752,-0.18145303537654142,-0.6969922896038219,0.602569805401914,"(0.0, 0.0, 0.0, 0.0, 0.0, 0.0, 0.0, 0.0, 0.0)",0.000429,0.000212,0.00053,"(0.0, 0.0, 0.0, 0.0, 0.0, 0.0, 0.0, 0.0, 0.0)",0.502,-0.267,-9.741,"(0.0, 0.0, 0.0, 0.0, 0.0, 0.0, 0.0, 0.0, 0.0)",38452,1678937272,1678937272,imu1_frame,0.2448,0.0235,0.4989,"(0.0, 0.0, 0.0, 0.0, 0.0, 0.0, 0.0, 0.0, 0.0)","$VNYMR,+016.471,+002.878,+001.532,+00.2448,+00.0235,+00.4989,+00.502,-00.267,-09.741,+00.000429,+00.000212,+00.000536*68
"
1678937273.0234277,2749,1678937272,977296829,imu1_frame,38453,1678937272,1678937272,imu1_frame,0.3423644753350084,-0.17953882963899392,-0.6971419427636252,0.6037760233068247,"(0.0, 0.0, 0.0, 0.0, 0.0, 0.0, 0.0, 0.0, 0.0)",0.000313,-0.001186,0.00021,"(0.0, 0.0, 0.0, 0.0, 0.0, 0.0, 0.0, 0.0, 0.0)",0.502,-0.245,-9.721,"(0.0, 0.0, 0.0, 0.0, 0.0, 0.0, 0.0, 0.0, 0.0)",38453,1678937272,1678937272,imu1_frame,0.2439,0.0177,0.5011,"(0.0, 0.0, 0.0, 0.0, 0.0, 0.0, 0.0, 0.0, 0.0)","$VNYMR,+016.466,+002.878,+001.533,+00.2439,+00.0177,+00.5011,+00.502,-00.245,-09.721,+00.000313,-00.001186,+00.000214*63
"
1678937273.023488,2750,1678937273,2183675,imu1_frame,38454,1678937273,1678937273,imu1_frame,0.34165776433916856,-0.17969802122245795,-0.6974504430851675,0.6037726995118259,"(0.0, 0.0, 0.0, 0.0, 0.0, 0.0, 0.0, 0.0, 0.0)",0.001073,0.00119,-0.00135,"(0.0, 0.0, 0.0, 0.0, 0.0, 0.0, 0.0, 0.0, 0.0)",0.506,-0.266,-9.744,"(0.0, 0.0, 0.0, 0.0, 0.0, 0.0, 0.0, 0.0, 0.0)",38454,1678937273,1678937273,imu1_frame,0.2458,0.0225,0.5033,"(0.0, 0.0, 0.0, 0.0, 0.0, 0.0, 0.0, 0.0, 0.0)","$VNYMR,+016.465,+002.879,+001.532,+00.2458,+00.0225,+00.5033,+00.506,-00.266,-09.744,+00.001073,+00.001190,-00.001350*66
"
1678937273.067352,2751,1678937273,27475118,imu1_frame,38455,1678937273,1678937273,imu1_frame,0.3413558352947712,-0.17934927355319297,-0.6975402049107315,0.6039434529152921,"(0.0, 0.0, 0.0, 0.0, 0.0, 0.0, 0.0, 0.0, 0.0)",0.000972,0.000222,-0.00159,"(0.0, 0.0, 0.0, 0.0, 0.0, 0.0, 0.0, 0.0, 0.0)",0.499,-0.271,-9.712,"(0.0, 0.0, 0.0, 0.0, 0.0, 0.0, 0.0, 0.0, 0.0)",38455,1678937273,1678937273,imu1_frame,0.2458,0.0167,0.5034,"(0.0, 0.0, 0.0, 0.0, 0.0, 0.0, 0.0, 0.0, 0.0)","$VNYMR,+016.464,+002.879,+001.532,+00.2458,+00.0167,+00.5034,+00.499,-00.271,-09.712,+00.000972,+00.000222,-00.001595*6A
"
1678937273.0673854,2752,1678937273,52745819,imu1_frame,38456,1678937273,1678937273,imu1_frame,0.3402491665876436,-0.17709773814676888,-0.6977660573943674,0.6049705983996518,"(0.0, 0.0, 0.0, 0.0, 0.0, 0.0, 0.0, 0.0, 0.0)",-2.7e-05,-0.000927,-0.00108,"(0.0, 0.0, 0.0, 0.0, 0.0, 0.0, 0.0, 0.0, 0.0)",0.505,-0.257,-9.709,"(0.0, 0.0, 0.0, 0.0, 0.0, 0.0, 0.0, 0.0, 0.0)",38456,1678937273,1678937273,imu1_frame,0.2467,0.0148,0.5067,"(0.0, 0.0, 0.0, 0.0, 0.0, 0.0, 0.0, 0.0, 0.0)","$VNYMR,+016.459,+002.878,+001.533,+00.2467,+00.0148,+00.5067,+00.505,-00.257,-09.709,-00.000027,-00.000927,-00.001085*6A
"
1678937273.1114142,2753,1678937273,77337026,imu1_frame,38457,1678937273,1678937273,imu1_frame,0.34033767292188244,-0.17692759143334671,-0.6974634848870157,0.6053194057924891,"(0.0, 0.0, 0.0, 0.0, 0.0, 0.0, 0.0, 0.0, 0.0)",0.000592,-0.000354,0.00043,"(0.0, 0.0, 0.0, 0.0, 0.0, 0.0, 0.0, 0.0, 0.0)",0.483,-0.263,-9.725,"(0.0, 0.0, 0.0, 0.0, 0.0, 0.0, 0.0, 0.0, 0.0)",38457,1678937273,1678937273,imu1_frame,0.2458,0.0167,0.5012,"(0.0, 0.0, 0.0, 0.0, 0.0, 0.0, 0.0, 0.0, 0.0)","$VNYMR,+016.459,+002.878,+001.534,+00.2458,+00.0167,+00.5012,+00.483,-00.263,-09.725,+00.000592,-00.000354,+00.000431*67
"
1678937273.1126838,2754,1678937273,102237701,imu1_frame,38458,1678937273,1678937273,imu1_frame,0.33912635424227044,-0.17553231153845844,-0.6978159449074743,0.6059988700461416,"(0.0, 0.0, 0.0, 0.0, 0.0, 0.0, 0.0, 0.0, 0.0)",0.00077,0.002271,0.00048,"(0.0, 0.0, 0.0, 0.0, 0.0, 0.0, 0.0, 0.0, 0.0)",0.475,-0.26,-9.751,"(0.0, 0.0, 0.0, 0.0, 0.0, 0.0, 0.0, 0.0, 0.0)",38458,1678937273,1678937273,imu1_frame,0.2467,0.0148,0.5078,"(0.0, 0.0, 0.0, 0.0, 0.0, 0.0, 0.0, 0.0, 0.0)","$VNYMR,+016.455,+002.878,+001.534,+00.2467,+00.0148,+00.5078,+00.475,-00.260,-09.751,+00.000770,+00.002271,+00.000486*6F
"
1678937273.1553824,2755,1678937273,127244472,imu1_frame,38459,1678937273,1678937273,imu1_frame,0.33861985263890987,-0.1739784337044643,-0.6978560788865147,0.6066836021895455,"(0.0, 0.0, 0.0, 0.0, 0.0, 0.0, 0.0, 0.0, 0.0)",0.000666,-0.002161,-0.00058,"(0.0, 0.0, 0.0, 0.0, 0.0, 0.0, 0.0, 0.0, 0.0)",0.498,-0.26,-9.739,"(0.0, 0.0, 0.0, 0.0, 0.0, 0.0, 0.0, 0.0, 0.0)",38459,1678937273,1678937273,imu1_frame,0.2458,0.0138,0.5045,"(0.0, 0.0, 0.0, 0.0, 0.0, 0.0, 0.0, 0.0, 0.0)","$VNYMR,+016.452,+002.877,+001.535,+00.2458,+00.0138,+00.5045,+00.498,-00.260,-09.739,+00.000666,-00.002161,-00.000588*65
"
1678937273.199442,2756,1678937273,152615070,imu1_frame,38460,1678937273,1678937273,imu1_frame,0.33883594606813167,-0.1744967797601363,-0.6980721723157373,0.6061652561338732,"(0.0, 0.0, 0.0, 0.0, 0.0, 0.0, 0.0, 0.0, 0.0)",-0.000767,0.002764,-0.00108,"(0.0, 0.0, 0.0, 0.0, 0.0, 0.0, 0.0, 0.0, 0.0)",0.482,-0.272,-9.748,"(0.0, 0.0, 0.0, 0.0, 0.0, 0.0, 0.0, 0.0, 0.0)",38460,1678937273,1678937273,imu1_frame,0.2458,0.0158,0.5077,"(0.0, 0.0, 0.0, 0.0, 0.0, 0.0, 0.0, 0.0, 0.0)","$VNYMR,+016.453,+002.877,+001.534,+00.2458,+00.0158,+00.5077,+00.482,-00.272,-09.748,-00.000767,+00.002764,-00.001082*61
"
1678937273.1994927,2757,1678937273,177352428,imu1_frame,38461,1678937273,1678937273,imu1_frame,0.33824225131151214,-0.17311168285337708,-0.6984134949735606,0.6065007128818627,"(0.0, 0.0, 0.0, 0.0, 0.0, 0.0, 0.0, 0.0, 0.0)",0.000216,-0.001447,0.00057,"(0.0, 0.0, 0.0, 0.0, 0.0, 0.0, 0.0, 0.0, 0.0)",0.47,-0.262,-9.748,"(0.0, 0.0, 0.0, 0.0, 0.0, 0.0, 0.0, 0.0, 0.0)",38461,1678937273,1678937273,imu1_frame,0.2429,0.0149,0.5055,"(0.0, 0.0, 0.0, 0.0, 0.0, 0.0, 0.0, 0.0, 0.0)","$VNYMR,+016.450,+002.876,+001.534,+00.2429,+00.0149,+00.5055,+00.470,-00.262,-09.748,+00.000216,-00.001447,+00.000570*64
"
1678937273.243341,2758,1678937273,202096462,imu1_frame,38462,1678937273,1678937273,imu1_frame,0.3380252976686994,-0.1725934634138718,-0.6981965413307469,0.6070189323213684,"(0.0, 0.0, 0.0, 0.0, 0.0, 0.0, 0.0, 0.0, 0.0)",-0.00039,0.000804,-0.00111,"(0.0, 0.0, 0.0, 0.0, 0.0, 0.0, 0.0, 0.0, 0.0)",0.468,-0.264,-9.73,"(0.0, 0.0, 0.0, 0.0, 0.0, 0.0, 0.0, 0.0, 0.0)",38462,1678937273,1678937273,imu1_frame,0.2448,0.0139,0.5055,"(0.0, 0.0, 0.0, 0.0, 0.0, 0.0, 0.0, 0.0, 0.0)","$VNYMR,+016.449,+002.876,+001.535,+00.2448,+00.0139,+00.5055,+00.468,-00.264,-09.730,-00.000390,+00.000804,-00.001117*6A
"
1678937273.2433848,2759,1678937273,227200984,imu1_frame,38463,1678937273,1678937273,imu1_frame,0.338353366507878,-0.1715681526111435,-0.6984424490003213,0.6068438957564117,"(0.0, 0.0, 0.0, 0.0, 0.0, 0.0, 0.0, 0.0, 0.0)",0.000255,0.000135,-0.00196,"(0.0, 0.0, 0.0, 0.0, 0.0, 0.0, 0.0, 0.0, 0.0)",0.449,-0.238,-9.748,"(0.0, 0.0, 0.0, 0.0, 0.0, 0.0, 0.0, 0.0, 0.0)",38463,1678937273,1678937273,imu1_frame,0.2458,0.0148,0.5045,"(0.0, 0.0, 0.0, 0.0, 0.0, 0.0, 0.0, 0.0, 0.0)","$VNYMR,+016.448,+002.874,+001.535,+00.2458,+00.0148,+00.5045,+00.449,-00.238,-09.748,+00.000255,+00.000135,-00.001966*61
"
1678937273.2873356,2760,1678937273,252224206,imu1_frame,38464,1678937273,1678937273,imu1_frame,0.3382548941976971,-0.17242457841952508,-0.698579982895688,0.6064976494642117,"(0.0, 0.0, 0.0, 0.0, 0.0, 0.0, 0.0, 0.0, 0.0)",0.001571,-0.001796,0.00037,"(0.0, 0.0, 0.0, 0.0, 0.0, 0.0, 0.0, 0.0, 0.0)",0.501,-0.254,-9.722,"(0.0, 0.0, 0.0, 0.0, 0.0, 0.0, 0.0, 0.0, 0.0)",38464,1678937273,1678937273,imu1_frame,0.2476,0.0157,0.5056,"(0.0, 0.0, 0.0, 0.0, 0.0, 0.0, 0.0, 0.0, 0.0)","$VNYMR,+016.449,+002.875,+001.534,+00.2476,+00.0157,+00.5056,+00.501,-00.254,-09.722,+00.001571,-00.001796,+00.000372*6B
"
1678937273.2873676,2761,1678937273,277347803,imu1_frame,38465,1678937273,1678937273,imu1_frame,0.3373447675279711,-0.17137651486051841,-0.6988378337639951,0.6070043493055122,"(0.0, 0.0, 0.0, 0.0, 0.0, 0.0, 0.0, 0.0, 0.0)",-0.000518,0.001493,-0.00112,"(0.0, 0.0, 0.0, 0.0, 0.0, 0.0, 0.0, 0.0, 0.0)",0.501,-0.226,-9.71,"(0.0, 0.0, 0.0, 0.0, 0.0, 0.0, 0.0, 0.0, 0.0)",38465,1678937273,1678937273,imu1_frame,0.2467,0.0177,0.5045,"(0.0, 0.0, 0.0, 0.0, 0.0, 0.0, 0.0, 0.0, 0.0)","$VNYMR,+016.446,+002.875,+001.534,+00.2467,+00.0177,+00.5045,+00.501,-00.226,-09.710,-00.000518,+00.001493,-00.001122*68
"
1678937273.3313322,2762,1678937273,302102565,imu1_frame,38466,1678937273,1678937273,imu1_frame,0.3353527921950548,-0.16961467085388798,-0.6999564816443465,0.6073139978645109,"(0.0, 0.0, 0.0, 0.0, 0.0, 0.0, 0.0, 0.0, 0.0)",0.001077,-0.00182,0.00014,"(0.0, 0.0, 0.0, 0.0, 0.0, 0.0, 0.0, 0.0, 0.0)",0.5,-0.253,-9.711,"(0.0, 0.0, 0.0, 0.0, 0.0, 0.0, 0.0, 0.0, 0.0)",38466,1678937273,1678937273,imu1_frame,0.2458,0.0196,0.5033,"(0.0, 0.0, 0.0, 0.0, 0.0, 0.0, 0.0, 0.0, 0.0)","$VNYMR,+016.440,+002.875,+001.532,+00.2458,+00.0196,+00.5033,+00.500,-00.253,-09.711,+00.001077,-00.001820,+00.000147*65
"
1678937273.3370965,2763,1678937273,327214002,imu1_frame,38467,1678937273,1678937273,imu1_frame,0.33357403934006713,-0.16941175199714398,-0.6996718788072301,0.6086766634018181,"(0.0, 0.0, 0.0, 0.0, 0.0, 0.0, 0.0, 0.0, 0.0)",0.000522,0.001799,0.00029,"(0.0, 0.0, 0.0, 0.0, 0.0, 0.0, 0.0, 0.0, 0.0)",0.504,-0.256,-9.766,"(0.0, 0.0, 0.0, 0.0, 0.0, 0.0, 0.0, 0.0, 0.0)",38467,1678937273,1678937273,imu1_frame,0.2439,0.0148,0.5066,"(0.0, 0.0, 0.0, 0.0, 0.0, 0.0, 0.0, 0.0, 0.0)","$VNYMR,+016.437,+002.878,+001.533,+00.2439,+00.0148,+00.5066,+00.504,-00.256,-09.766,+00.000522,+00.001799,+00.000292*68
"
1678937273.3832965,2764,1678937273,352162122,imu1_frame,38468,1678937273,1678937273,imu1_frame,0.3333414905643391,-0.16958316722160016,-0.6992889377434968,0.6091961766237599,"(0.0, 0.0, 0.0, 0.0, 0.0, 0.0, 0.0, 0.0, 0.0)",0.000668,0.001691,5e-05,"(0.0, 0.0, 0.0, 0.0, 0.0, 0.0, 0.0, 0.0, 0.0)",0.49,-0.255,-9.751,"(0.0, 0.0, 0.0, 0.0, 0.0, 0.0, 0.0, 0.0, 0.0)",38468,1678937273,1678937273,imu1_frame,0.2439,0.0148,0.5066,"(0.0, 0.0, 0.0, 0.0, 0.0, 0.0, 0.0, 0.0, 0.0)","$VNYMR,+016.437,+002.879,+001.534,+00.2439,+00.0148,+00.5066,+00.490,-00.255,-09.751,+00.000668,+00.001691,+00.000055*68
"
1678937273.4273956,2765,1678937273,377246618,imu1_frame,38469,1678937273,1678937273,imu1_frame,0.33242732163296973,-0.16853404342730754,-0.6995425256990313,0.6096955033265317,"(0.0, 0.0, 0.0, 0.0, 0.0, 0.0, 0.0, 0.0, 0.0)",-0.000753,-0.001271,3e-05,"(0.0, 0.0, 0.0, 0.0, 0.0, 0.0, 0.0, 0.0, 0.0)",0.492,-0.274,-9.728,"(0.0, 0.0, 0.0, 0.0, 0.0, 0.0, 0.0, 0.0, 0.0)",38469,1678937273,1678937273,imu1_frame,0.2439,0.0158,0.4967,"(0.0, 0.0, 0.0, 0.0, 0.0, 0.0, 0.0, 0.0, 0.0)","$VNYMR,+016.434,+002.879,+001.534,+00.2439,+00.0158,+00.4967,+00.492,-00.274,-09.728,-00.000753,-00.001271,+00.000036*6A
"
1678937273.4274414,2766,1678937273,402075052,imu1_frame,38470,1678937273,1678937273,imu1_frame,0.3327321278185159,-0.16888379360882744,-0.699458171238015,0.6095292134607047,"(0.0, 0.0, 0.0, 0.0, 0.0, 0.0, 0.0, 0.0, 0.0)",0.000803,0.000413,-0.00073,"(0.0, 0.0, 0.0, 0.0, 0.0, 0.0, 0.0, 0.0, 0.0)",0.488,-0.25,-9.749,"(0.0, 0.0, 0.0, 0.0, 0.0, 0.0, 0.0, 0.0, 0.0)",38470,1678937273,1678937273,imu1_frame,0.2429,0.0168,0.5054,"(0.0, 0.0, 0.0, 0.0, 0.0, 0.0, 0.0, 0.0, 0.0)","$VNYMR,+016.435,+002.879,+001.534,+00.2429,+00.0168,+00.5054,+00.488,-00.250,-09.749,+00.000803,+00.000413,-00.000738*6D
"
1678937273.471469,2767,1678937273,427310228,imu1_frame,38471,1678937273,1678937273,imu1_frame,0.3325115470977579,-0.16836780870666165,-0.6992375905172561,0.610045198362871,"(0.0, 0.0, 0.0, 0.0, 0.0, 0.0, 0.0, 0.0, 0.0)",0.000995,-0.001895,-0.00035,"(0.0, 0.0, 0.0, 0.0, 0.0, 0.0, 0.0, 0.0, 0.0)",0.487,-0.291,-9.732,"(0.0, 0.0, 0.0, 0.0, 0.0, 0.0, 0.0, 0.0, 0.0)",38471,1678937273,1678937273,imu1_frame,0.2448,0.0138,0.5012,"(0.0, 0.0, 0.0, 0.0, 0.0, 0.0, 0.0, 0.0, 0.0)","$VNYMR,+016.434,+002.879,+001.535,+00.2448,+00.0138,+00.5012,+00.487,-00.291,-09.732,+00.000995,-00.001895,-00.000353*61
"
1678937273.4715078,2768,1678937273,452158927,imu1_frame,38472,1678937273,1678937273,imu1_frame,0.332595689434661,-0.16820153189406445,-0.698932480526087,0.6103947408879139,"(0.0, 0.0, 0.0, 0.0, 0.0, 0.0, 0.0, 0.0, 0.0)",9.2e-05,-0.001247,0.00022,"(0.0, 0.0, 0.0, 0.0, 0.0, 0.0, 0.0, 0.0, 0.0)",0.478,-0.286,-9.747,"(0.0, 0.0, 0.0, 0.0, 0.0, 0.0, 0.0, 0.0, 0.0)",38472,1678937273,1678937273,imu1_frame,0.2476,0.0157,0.5023,"(0.0, 0.0, 0.0, 0.0, 0.0, 0.0, 0.0, 0.0, 0.0)","$VNYMR,+016.434,+002.879,+001.536,+00.2476,+00.0157,+00.5023,+00.478,-00.286,-09.747,+00.000092,-00.001247,+00.000226*6E
"
1678937273.519547,2769,1678937273,477330923,imu1_frame,38473,1678937273,1678937273,imu1_frame,0.33266812110740507,-0.1687232409667615,-0.6984644851454233,0.6107468805872688,"(0.0, 0.0, 0.0, 0.0, 0.0, 0.0, 0.0, 0.0, 0.0)",6e-06,0.000218,0.00078,"(0.0, 0.0, 0.0, 0.0, 0.0, 0.0, 0.0, 0.0, 0.0)",0.487,-0.234,-9.775,"(0.0, 0.0, 0.0, 0.0, 0.0, 0.0, 0.0, 0.0, 0.0)",38473,1678937273,1678937273,imu1_frame,0.242,0.013,0.5044,"(0.0, 0.0, 0.0, 0.0, 0.0, 0.0, 0.0, 0.0, 0.0)","$VNYMR,+016.435,+002.880,+001.537,+00.2420,+00.0130,+00.5044,+00.487,-00.234,-09.775,+00.000006,+00.000218,+00.000788*62
"
1678937273.5195801,2770,1678937273,502145528,imu1_frame,38474,1678937273,1678937273,imu1_frame,0.33266812110740507,-0.1687232409667615,-0.6984644851454233,0.6107468805872688,"(0.0, 0.0, 0.0, 0.0, 0.0, 0.0, 0.0, 0.0, 0.0)",0.000274,-0.001132,-0.00248,"(0.0, 0.0, 0.0, 0.0, 0.0, 0.0, 0.0, 0.0, 0.0)",0.489,-0.253,-9.736,"(0.0, 0.0, 0.0, 0.0, 0.0, 0.0, 0.0, 0.0, 0.0)",38474,1678937273,1678937273,imu1_frame,0.2448,0.0148,0.5033,"(0.0, 0.0, 0.0, 0.0, 0.0, 0.0, 0.0, 0.0, 0.0)","$VNYMR,+016.435,+002.880,+001.537,+00.2448,+00.0148,+00.5033,+00.489,-00.253,-09.736,+00.000274,-00.001132,-00.002481*6E
"
1678937273.5633795,2771,1678937273,526928663,imu1_frame,38475,1678937273,1678937273,imu1_frame,0.332656496347754,-0.16941110584779584,-0.6983010865425795,0.6107496419864007,"(0.0, 0.0, 0.0, 0.0, 0.0, 0.0, 0.0, 0.0, 0.0)",0.00014,0.000221,-0.00027,"(0.0, 0.0, 0.0, 0.0, 0.0, 0.0, 0.0, 0.0, 0.0)",0.492,-0.251,-9.731,"(0.0, 0.0, 0.0, 0.0, 0.0, 0.0, 0.0, 0.0, 0.0)",38475,1678937273,1678937273,imu1_frame,0.2439,0.0158,0.5055,"(0.0, 0.0, 0.0, 0.0, 0.0, 0.0, 0.0, 0.0, 0.0)","$VNYMR,+016.436,+002.881,+001.537,+00.2439,+00.0158,+00.5055,+00.492,-00.251,-09.731,+00.000140,+00.000221,-00.000270*6C
"
1678937273.563433,2772,1678937273,552619934,imu1_frame,38476,1678937273,1678937273,imu1_frame,0.3317399979898328,-0.16836346402331792,-0.6985544175174824,0.6112479394505845,"(0.0, 0.0, 0.0, 0.0, 0.0, 0.0, 0.0, 0.0, 0.0)",0.001488,0.002527,-0.00054,"(0.0, 0.0, 0.0, 0.0, 0.0, 0.0, 0.0, 0.0, 0.0)",0.485,-0.228,-9.748,"(0.0, 0.0, 0.0, 0.0, 0.0, 0.0, 0.0, 0.0, 0.0)",38476,1678937273,1678937273,imu1_frame,0.2439,0.0168,0.5066,"(0.0, 0.0, 0.0, 0.0, 0.0, 0.0, 0.0, 0.0, 0.0)","$VNYMR,+016.433,+002.881,+001.537,+00.2439,+00.0168,+00.5066,+00.485,-00.228,-09.748,+00.001488,+00.002527,-00.000540*6B
"
1678937273.6113434,2773,1678937273,577088356,imu1_frame,38477,1678937273,1678937273,imu1_frame,0.3320455804793253,-0.16871272017209132,-0.6984701484696777,0.61108199305251,"(0.0, 0.0, 0.0, 0.0, 0.0, 0.0, 0.0, 0.0, 0.0)",0.001209,0.001939,-0.0002,"(0.0, 0.0, 0.0, 0.0, 0.0, 0.0, 0.0, 0.0, 0.0)",0.495,-0.226,-9.718,"(0.0, 0.0, 0.0, 0.0, 0.0, 0.0, 0.0, 0.0, 0.0)",38477,1678937273,1678937273,imu1_frame,0.2448,0.0129,0.5034,"(0.0, 0.0, 0.0, 0.0, 0.0, 0.0, 0.0, 0.0, 0.0)","$VNYMR,+016.434,+002.881,+001.537,+00.2448,+00.0129,+00.5034,+00.495,-00.226,-09.718,+00.001209,+00.001939,-00.000206*68
"
1678937273.6126988,2774,1678937273,602096557,imu1_frame,38478,1678937273,1678937273,imu1_frame,0.33164380468315263,-0.1692172535652559,-0.698696900903355,0.6109014229637726,"(0.0, 0.0, 0.0, 0.0, 0.0, 0.0, 0.0, 0.0, 0.0)",0.001327,0.001658,0.00023,"(0.0, 0.0, 0.0, 0.0, 0.0, 0.0, 0.0, 0.0, 0.0)",0.503,-0.235,-9.749,"(0.0, 0.0, 0.0, 0.0, 0.0, 0.0, 0.0, 0.0, 0.0)",38478,1678937273,1678937273,imu1_frame,0.2467,0.0157,0.5056,"(0.0, 0.0, 0.0, 0.0, 0.0, 0.0, 0.0, 0.0, 0.0)","$VNYMR,+016.434,+002.882,+001.536,+00.2467,+00.0157,+00.5056,+00.503,-00.235,-09.749,+00.001327,+00.001658,+00.000234*60
"
1678937273.6593635,2775,1678937273,627074241,imu1_frame,38479,1678937273,1678937273,imu1_frame,0.3318643891458892,-0.1697325342532198,-0.6989174853660924,0.6103861422758082,"(0.0, 0.0, 0.0, 0.0, 0.0, 0.0, 0.0, 0.0, 0.0)",0.000646,-0.002593,0.00036,"(0.0, 0.0, 0.0, 0.0, 0.0, 0.0, 0.0, 0.0, 0.0)",0.51,-0.237,-9.71,"(0.0, 0.0, 0.0, 0.0, 0.0, 0.0, 0.0, 0.0, 0.0)",38479,1678937273,1678937273,imu1_frame,0.2439,0.0129,0.5055,"(0.0, 0.0, 0.0, 0.0, 0.0, 0.0, 0.0, 0.0, 0.0)","$VNYMR,+016.435,+002.882,+001.535,+00.2439,+00.0129,+00.5055,+00.510,-00.237,-09.710,+00.000646,-00.002593,+00.000364*69
"
1678937273.7073011,2776,1678937273,652627229,imu1_frame,38480,1678937273,1678937273,imu1_frame,0.33177948139925095,-0.16989844522431252,-0.6992225910598302,0.6100366072494199,"(0.0, 0.0, 0.0, 0.0, 0.0, 0.0, 0.0, 0.0, 0.0)",0.000384,-0.000313,-0.0003,"(0.0, 0.0, 0.0, 0.0, 0.0, 0.0, 0.0, 0.0, 0.0)",0.488,-0.264,-9.707,"(0.0, 0.0, 0.0, 0.0, 0.0, 0.0, 0.0, 0.0, 0.0)",38480,1678937273,1678937273,imu1_frame,0.2458,0.0196,0.5,"(0.0, 0.0, 0.0, 0.0, 0.0, 0.0, 0.0, 0.0, 0.0)","$VNYMR,+016.435,+002.882,+001.534,+00.2458,+00.0196,+00.5000,+00.488,-00.264,-09.707,+00.000384,-00.000313,-00.000302*6A
"
1678937273.7073357,2777,1678937273,677143573,imu1_frame,38481,1678937273,1678937273,imu1_frame,0.33107163757716696,-0.1700525415390868,-0.6995338437163163,0.6100213974964703,"(0.0, 0.0, 0.0, 0.0, 0.0, 0.0, 0.0, 0.0, 0.0)",0.000438,0.001527,0.00014,"(0.0, 0.0, 0.0, 0.0, 0.0, 0.0, 0.0, 0.0, 0.0)",0.473,-0.257,-9.705,"(0.0, 0.0, 0.0, 0.0, 0.0, 0.0, 0.0, 0.0, 0.0)",38481,1678937273,1678937273,imu1_frame,0.2448,0.0196,0.5033,"(0.0, 0.0, 0.0, 0.0, 0.0, 0.0, 0.0, 0.0, 0.0)","$VNYMR,+016.434,+002.883,+001.533,+00.2448,+00.0196,+00.5033,+00.473,-00.257,-09.705,+00.000438,+00.001527,+00.000149*67
"
1678937273.7514148,2778,1678937273,702533006,imu1_frame,38482,1678937273,1678937273,imu1_frame,0.32987694973940707,-0.16727664167593992,-0.7001958947526223,0.610676208928937,"(0.0, 0.0, 0.0, 0.0, 0.0, 0.0, 0.0, 0.0, 0.0)",-0.000458,-0.001913,-0.0005,"(0.0, 0.0, 0.0, 0.0, 0.0, 0.0, 0.0, 0.0, 0.0)",0.492,-0.267,-9.754,"(0.0, 0.0, 0.0, 0.0, 0.0, 0.0, 0.0, 0.0, 0.0)",38482,1678937273,1678937273,imu1_frame,0.2467,0.0138,0.5067,"(0.0, 0.0, 0.0, 0.0, 0.0, 0.0, 0.0, 0.0, 0.0)","$VNYMR,+016.428,+002.881,+001.533,+00.2467,+00.0138,+00.5067,+00.492,-00.267,-09.754,-00.000458,-00.001913,-00.000503*69
"
1678937273.751459,2779,1678937273,727832794,imu1_frame,38483,1678937273,1678937273,imu1_frame,0.32996054682214226,-0.16711168229836282,-0.6998904691363952,0.6110262305272015,"(0.0, 0.0, 0.0, 0.0, 0.0, 0.0, 0.0, 0.0, 0.0)",0.000214,-0.001234,-0.00047,"(0.0, 0.0, 0.0, 0.0, 0.0, 0.0, 0.0, 0.0, 0.0)",0.49,-0.24,-9.706,"(0.0, 0.0, 0.0, 0.0, 0.0, 0.0, 0.0, 0.0, 0.0)",38483,1678937273,1678937273,imu1_frame,0.2439,0.0148,0.5011,"(0.0, 0.0, 0.0, 0.0, 0.0, 0.0, 0.0, 0.0, 0.0)","$VNYMR,+016.428,+002.881,+001.534,+00.2439,+00.0148,+00.5011,+00.490,-00.240,-09.706,+00.000214,-00.001234,-00.000471*61
"
1678937273.7954762,2780,1678937273,752018928,imu1_frame,38484,1678937273,1678937273,imu1_frame,0.32987694973940707,-0.16727664167593992,-0.7001958947526223,0.610676208928937,"(0.0, 0.0, 0.0, 0.0, 0.0, 0.0, 0.0, 0.0, 0.0)",0.001161,0.002091,-0.00049,"(0.0, 0.0, 0.0, 0.0, 0.0, 0.0, 0.0, 0.0, 0.0)",0.49,-0.278,-9.736,"(0.0, 0.0, 0.0, 0.0, 0.0, 0.0, 0.0, 0.0, 0.0)",38484,1678937273,1678937273,imu1_frame,0.2439,0.0129,0.5077,"(0.0, 0.0, 0.0, 0.0, 0.0, 0.0, 0.0, 0.0, 0.0)","$VNYMR,+016.428,+002.881,+001.533,+00.2439,+00.0129,+00.5077,+00.490,-00.278,-09.736,+00.001161,+00.002091,-00.000490*6E
"
1678937273.795515,2781,1678937273,777064085,imu1_frame,38485,1678937273,1678937273,imu1_frame,0.32943252039525184,-0.1662470129175816,-0.6997514654084679,0.6117058376872949,"(0.0, 0.0, 0.0, 0.0, 0.0, 0.0, 0.0, 0.0, 0.0)",0.000673,0.000174,0.0003,"(0.0, 0.0, 0.0, 0.0, 0.0, 0.0, 0.0, 0.0, 0.0)",0.487,-0.256,-9.761,"(0.0, 0.0, 0.0, 0.0, 0.0, 0.0, 0.0, 0.0, 0.0)",38485,1678937273,1678937273,imu1_frame,0.2467,0.0138,0.5034,"(0.0, 0.0, 0.0, 0.0, 0.0, 0.0, 0.0, 0.0, 0.0)","$VNYMR,+016.426,+002.881,+001.535,+00.2467,+00.0138,+00.5034,+00.487,-00.256,-09.761,+00.000673,+00.000174,+00.000301*66
"
1678937273.8435051,2782,1678937273,802493333,imu1_frame,38486,1678937273,1678937273,imu1_frame,0.3291143006546083,-0.16658569764486159,-0.699674202664824,0.6118733468375179,"(0.0, 0.0, 0.0, 0.0, 0.0, 0.0, 0.0, 0.0, 0.0)",-0.000551,0.000457,-0.00054,"(0.0, 0.0, 0.0, 0.0, 0.0, 0.0, 0.0, 0.0, 0.0)",0.501,-0.283,-9.762,"(0.0, 0.0, 0.0, 0.0, 0.0, 0.0, 0.0, 0.0, 0.0)",38486,1678937273,1678937273,imu1_frame,0.2457,0.0148,0.5023,"(0.0, 0.0, 0.0, 0.0, 0.0, 0.0, 0.0, 0.0, 0.0)","$VNYMR,+016.426,+002.882,+001.535,+00.2457,+00.0148,+00.5023,+00.501,-00.283,-09.762,-00.000551,+00.000457,-00.000544*63
"
1678937273.8435469,2783,1678937273,827777624,imu1_frame,38487,1678937273,1678937273,imu1_frame,0.3298931297398973,-0.16695547884104778,-0.6988953735795356,0.612243128033703,"(0.0, 0.0, 0.0, 0.0, 0.0, 0.0, 0.0, 0.0, 0.0)",-0.000248,-0.000595,-0.00077,"(0.0, 0.0, 0.0, 0.0, 0.0, 0.0, 0.0, 0.0, 0.0)",0.463,-0.273,-9.719,"(0.0, 0.0, 0.0, 0.0, 0.0, 0.0, 0.0, 0.0, 0.0)",38487,1678937273,1678937273,imu1_frame,0.2467,0.0157,0.5034,"(0.0, 0.0, 0.0, 0.0, 0.0, 0.0, 0.0, 0.0, 0.0)","$VNYMR,+016.428,+002.882,+001.537,+00.2467,+00.0157,+00.5034,+00.463,-00.273,-09.719,-00.000248,-00.000595,-00.000770*61
"
1678937273.8915906,2784,1678937273,851940393,imu1_frame,38488,1678937273,1678937273,imu1_frame,0.3305168394461535,-0.16696601939287237,-0.6988897471126753,0.6119101965087733,"(0.0, 0.0, 0.0, 0.0, 0.0, 0.0, 0.0, 0.0, 0.0)",0.000388,0.002736,0.0,"(0.0, 0.0, 0.0, 0.0, 0.0, 0.0, 0.0, 0.0, 0.0)",0.498,-0.237,-9.754,"(0.0, 0.0, 0.0, 0.0, 0.0, 0.0, 0.0, 0.0, 0.0)",38488,1678937273,1678937273,imu1_frame,0.2458,0.0167,0.5066,"(0.0, 0.0, 0.0, 0.0, 0.0, 0.0, 0.0, 0.0, 0.0)","$VNYMR,+016.429,+002.881,+001.537,+00.2458,+00.0167,+00.5066,+00.498,-00.237,-09.754,+00.000388,+00.002736,+00.000001*65
"
1678937273.891641,2785,1678937273,877806901,imu1_frame,38489,1678937273,1678937273,imu1_frame,0.3289860326838122,-0.165218275076577,-0.6993049776970279,0.6127345755282997,"(0.0, 0.0, 0.0, 0.0, 0.0, 0.0, 0.0, 0.0, 0.0)",0.000249,0.001147,0.00096,"(0.0, 0.0, 0.0, 0.0, 0.0, 0.0, 0.0, 0.0, 0.0)",0.494,-0.253,-9.745,"(0.0, 0.0, 0.0, 0.0, 0.0, 0.0, 0.0, 0.0, 0.0)",38489,1678937273,1678937273,imu1_frame,0.2458,0.0206,0.5,"(0.0, 0.0, 0.0, 0.0, 0.0, 0.0, 0.0, 0.0, 0.0)","$VNYMR,+016.424,+002.881,+001.537,+00.2458,+00.0206,+00.5000,+00.494,-00.253,-09.745,+00.000249,+00.001147,+00.000966*65
"
1678937273.9396462,2786,1678937273,902449607,imu1_frame,38490,1678937273,1678937273,imu1_frame,0.3279724485672059,-0.16502205141145235,-0.6996996218264497,0.6128802776600913,"(0.0, 0.0, 0.0, 0.0, 0.0, 0.0, 0.0, 0.0, 0.0)",-0.000386,-4.5e-05,-0.00027,"(0.0, 0.0, 0.0, 0.0, 0.0, 0.0, 0.0, 0.0, 0.0)",0.494,-0.262,-9.757,"(0.0, 0.0, 0.0, 0.0, 0.0, 0.0, 0.0, 0.0, 0.0)",38490,1678937273,1678937273,imu1_frame,0.2467,0.0148,0.5045,"(0.0, 0.0, 0.0, 0.0, 0.0, 0.0, 0.0, 0.0, 0.0)","$VNYMR,+016.422,+002.882,+001.536,+00.2467,+00.0148,+00.5045,+00.494,-00.262,-09.757,-00.000386,-00.000045,-00.000271*6F
"
1678937273.9397137,2787,1678937273,927707433,imu1_frame,38491,1678937273,1678937273,imu1_frame,0.32777155285650766,-0.16313018557279513,-0.6997919059311665,0.6133886533725941,"(0.0, 0.0, 0.0, 0.0, 0.0, 0.0, 0.0, 0.0, 0.0)",0.000568,-0.002041,-0.00078,"(0.0, 0.0, 0.0, 0.0, 0.0, 0.0, 0.0, 0.0, 0.0)",0.497,-0.251,-9.738,"(0.0, 0.0, 0.0, 0.0, 0.0, 0.0, 0.0, 0.0, 0.0)",38491,1678937273,1678937273,imu1_frame,0.2458,0.0225,0.4989,"(0.0, 0.0, 0.0, 0.0, 0.0, 0.0, 0.0, 0.0, 0.0)","$VNYMR,+016.419,+002.880,+001.537,+00.2458,+00.0225,+00.4989,+00.497,-00.251,-09.738,+00.000568,-00.002041,-00.000786*69
"
1678937273.9874394,2788,1678937273,951998710,imu1_frame,38492,1678937273,1678937273,imu1_frame,0.3267820183510862,-0.16155418316611145,-0.7004988319529087,0.6135268085556909,"(0.0, 0.0, 0.0, 0.0, 0.0, 0.0, 0.0, 0.0, 0.0)",4.9e-05,-0.000906,0.00052,"(0.0, 0.0, 0.0, 0.0, 0.0, 0.0, 0.0, 0.0, 0.0)",0.484,-0.231,-9.735,"(0.0, 0.0, 0.0, 0.0, 0.0, 0.0, 0.0, 0.0, 0.0)",38492,1678937273,1678937273,imu1_frame,0.2448,0.0158,0.5055,"(0.0, 0.0, 0.0, 0.0, 0.0, 0.0, 0.0, 0.0, 0.0)","$VNYMR,+016.415,+002.879,+001.536,+00.2448,+00.0158,+00.5055,+00.484,-00.231,-09.735,+00.000049,-00.000906,+00.000527*6B
"
1678937273.9874785,2789,1678937273,977753400,imu1_frame,38493,1678937273,1678937273,imu1_frame,0.3274193801433409,-0.160875371875444,-0.7006485695484627,0.6131942972828278,"(0.0, 0.0, 0.0, 0.0, 0.0, 0.0, 0.0, 0.0, 0.0)",0.001386,-0.000532,0.00081,"(0.0, 0.0, 0.0, 0.0, 0.0, 0.0, 0.0, 0.0, 0.0)",0.483,-0.255,-9.726,"(0.0, 0.0, 0.0, 0.0, 0.0, 0.0, 0.0, 0.0, 0.0)",38493,1678937273,1678937273,imu1_frame,0.2457,0.0186,0.4957,"(0.0, 0.0, 0.0, 0.0, 0.0, 0.0, 0.0, 0.0, 0.0)","$VNYMR,+016.415,+002.877,+001.536,+00.2457,+00.0186,+00.4957,+00.483,-00.255,-09.726,+00.001386,-00.000532,+00.000810*66
"
1678937274.0312905,2790,1678937274,2683877,imu1_frame,38494,1678937274,1678937274,imu1_frame,0.3264069181778325,-0.16067736693063445,-0.7010414089135283,0.6133369795719342,"(0.0, 0.0, 0.0, 0.0, 0.0, 0.0, 0.0, 0.0, 0.0)",-0.000167,0.00107,7e-05,"(0.0, 0.0, 0.0, 0.0, 0.0, 0.0, 0.0, 0.0, 0.0)",0.487,-0.243,-9.752,"(0.0, 0.0, 0.0, 0.0, 0.0, 0.0, 0.0, 0.0, 0.0)",38494,1678937274,1678937274,imu1_frame,0.2458,0.0167,0.5077,"(0.0, 0.0, 0.0, 0.0, 0.0, 0.0, 0.0, 0.0, 0.0)","$VNYMR,+016.413,+002.878,+001.535,+00.2458,+00.0167,+00.5077,+00.487,-00.243,-09.752,-00.000167,+00.001070,+00.000076*60
"
1678937274.0755026,2791,1678937274,27726888,imu1_frame,38495,1678937274,1678937274,imu1_frame,0.3257810684975524,-0.1606661641745224,-0.7010472956159993,0.6136658442568985,"(0.0, 0.0, 0.0, 0.0, 0.0, 0.0, 0.0, 0.0, 0.0)",0.000304,0.002539,-0.00069,"(0.0, 0.0, 0.0, 0.0, 0.0, 0.0, 0.0, 0.0, 0.0)",0.495,-0.259,-9.73,"(0.0, 0.0, 0.0, 0.0, 0.0, 0.0, 0.0, 0.0, 0.0)",38495,1678937274,1678937274,imu1_frame,0.2457,0.0177,0.5001,"(0.0, 0.0, 0.0, 0.0, 0.0, 0.0, 0.0, 0.0, 0.0)","$VNYMR,+016.412,+002.879,+001.535,+00.2457,+00.0177,+00.5001,+00.495,-00.259,-09.730,+00.000304,+00.002539,-00.000696*67
"
1678937274.075553,2792,1678937274,52793741,imu1_frame,38496,1678937274,1678937274,imu1_frame,0.32508721670415,-0.16012760028020165,-0.7015145192252555,0.6136406378982829,"(0.0, 0.0, 0.0, 0.0, 0.0, 0.0, 0.0, 0.0, 0.0)",-5e-05,0.00215,-0.00075,"(0.0, 0.0, 0.0, 0.0, 0.0, 0.0, 0.0, 0.0, 0.0)",0.482,-0.251,-9.733,"(0.0, 0.0, 0.0, 0.0, 0.0, 0.0, 0.0, 0.0, 0.0)",38496,1678937274,1678937274,imu1_frame,0.2476,0.0157,0.498,"(0.0, 0.0, 0.0, 0.0, 0.0, 0.0, 0.0, 0.0, 0.0)","$VNYMR,+016.410,+002.879,+001.534,+00.2476,+00.0157,+00.4980,+00.482,-00.251,-09.733,-00.000050,+00.002150,-00.000752*6F
"
1678937274.1194956,2793,1678937274,77697515,imu1_frame,38497,1678937274,1678937274,imu1_frame,0.32417909199138467,-0.1583848521984389,-0.7019066347850149,0.614124768230769,"(0.0, 0.0, 0.0, 0.0, 0.0, 0.0, 0.0, 0.0, 0.0)",0.000418,-0.001346,-0.00032,"(0.0, 0.0, 0.0, 0.0, 0.0, 0.0, 0.0, 0.0, 0.0)",0.512,-0.272,-9.73,"(0.0, 0.0, 0.0, 0.0, 0.0, 0.0, 0.0, 0.0, 0.0)",38497,1678937274,1678937274,imu1_frame,0.2467,0.0157,0.5034,"(0.0, 0.0, 0.0, 0.0, 0.0, 0.0, 0.0, 0.0, 0.0)","$VNYMR,+016.406,+002.878,+001.534,+00.2467,+00.0157,+00.5034,+00.512,-00.272,-09.730,+00.000418,-00.001346,-00.000329*62
"
1678937274.1195412,2794,1678937274,102031469,imu1_frame,38498,1678937274,1678937274,imu1_frame,0.3217200060398428,-0.15557596606916907,-0.7025345572587802,0.6154165681492316,"(0.0, 0.0, 0.0, 0.0, 0.0, 0.0, 0.0, 0.0, 0.0)",0.001116,-0.001042,-0.00054,"(0.0, 0.0, 0.0, 0.0, 0.0, 0.0, 0.0, 0.0, 0.0)",0.506,-0.239,-9.716,"(0.0, 0.0, 0.0, 0.0, 0.0, 0.0, 0.0, 0.0, 0.0)",38498,1678937274,1678937274,imu1_frame,0.2467,0.0157,0.5045,"(0.0, 0.0, 0.0, 0.0, 0.0, 0.0, 0.0, 0.0, 0.0)","$VNYMR,+016.398,+002.878,+001.534,+00.2467,+00.0157,+00.5045,+00.506,-00.239,-09.716,+00.001116,-00.001042,-00.000545*6B
"
1678937274.163475,2795,1678937274,127695798,imu1_frame,38499,1678937274,1678937274,imu1_frame,0.3208737404908712,-0.15436157203716308,-0.7024590937082686,0.6162497621972527,"(0.0, 0.0, 0.0, 0.0, 0.0, 0.0, 0.0, 0.0, 0.0)",0.000825,-0.001798,0.00066,"(0.0, 0.0, 0.0, 0.0, 0.0, 0.0, 0.0, 0.0, 0.0)",0.477,-0.261,-9.748,"(0.0, 0.0, 0.0, 0.0, 0.0, 0.0, 0.0, 0.0, 0.0)",38499,1678937274,1678937274,imu1_frame,0.2429,0.012,0.5,"(0.0, 0.0, 0.0, 0.0, 0.0, 0.0, 0.0, 0.0, 0.0)","$VNYMR,+016.395,+002.878,+001.535,+00.2429,+00.0120,+00.5000,+00.477,-00.261,-09.748,+00.000825,-00.001798,+00.000665*62
"
1678937274.1645796,2796,1678937274,153287410,imu1_frame,38500,1678937274,1678937274,imu1_frame,0.31994900521132535,-0.15330771013499783,-0.7026898457131638,0.616730379346645,"(0.0, 0.0, 0.0, 0.0, 0.0, 0.0, 0.0, 0.0, 0.0)",0.001728,0.002633,-0.00179,"(0.0, 0.0, 0.0, 0.0, 0.0, 0.0, 0.0, 0.0, 0.0)",0.482,-0.269,-9.736,"(0.0, 0.0, 0.0, 0.0, 0.0, 0.0, 0.0, 0.0, 0.0)",38500,1678937274,1678937274,imu1_frame,0.2458,0.0138,0.5056,"(0.0, 0.0, 0.0, 0.0, 0.0, 0.0, 0.0, 0.0, 0.0)","$VNYMR,+016.392,+002.878,+001.535,+00.2458,+00.0138,+00.5056,+00.482,-00.269,-09.736,+00.001728,+00.002633,-00.001798*60
"
1678937274.2073495,2797,1678937274,177669286,imu1_frame,38501,1678937274,1678937274,imu1_frame,0.3172970861562518,-0.15121072443250377,-0.702463868016275,0.6188718688589447,"(0.0, 0.0, 0.0, 0.0, 0.0, 0.0, 0.0, 0.0, 0.0)",0.000456,0.000371,-0.00092,"(0.0, 0.0, 0.0, 0.0, 0.0, 0.0, 0.0, 0.0, 0.0)",0.499,-0.255,-9.735,"(0.0, 0.0, 0.0, 0.0, 0.0, 0.0, 0.0, 0.0, 0.0)",38501,1678937274,1678937274,imu1_frame,0.2458,0.0196,0.5022,"(0.0, 0.0, 0.0, 0.0, 0.0, 0.0, 0.0, 0.0, 0.0)","$VNYMR,+016.385,+002.880,+001.537,+00.2458,+00.0196,+00.5022,+00.499,-00.255,-09.735,+00.000456,+00.000371,-00.000925*61
"
1678937274.251491,2798,1678937274,202473640,imu1_frame,38502,1678937274,1678937274,imu1_frame,0.3173087787752441,-0.15051884415166097,-0.7026093289215127,0.6188694106028125,"(0.0, 0.0, 0.0, 0.0, 0.0, 0.0, 0.0, 0.0, 0.0)",0.000856,-0.00143,-0.00075,"(0.0, 0.0, 0.0, 0.0, 0.0, 0.0, 0.0, 0.0, 0.0)",0.5,-0.258,-9.771,"(0.0, 0.0, 0.0, 0.0, 0.0, 0.0, 0.0, 0.0, 0.0)",38502,1678937274,1678937274,imu1_frame,0.2467,0.0119,0.5078,"(0.0, 0.0, 0.0, 0.0, 0.0, 0.0, 0.0, 0.0, 0.0)","$VNYMR,+016.384,+002.879,+001.537,+00.2467,+00.0119,+00.5078,+00.500,-00.258,-09.771,+00.000856,-00.001430,-00.000758*63
"
1678937274.2515278,2799,1678937274,227622747,imu1_frame,38503,1678937274,1678937274,imu1_frame,0.31636842174192376,-0.15015685891358216,-0.7026898937461643,0.6193471180789776,"(0.0, 0.0, 0.0, 0.0, 0.0, 0.0, 0.0, 0.0, 0.0)",-0.000818,-0.001931,-0.00022,"(0.0, 0.0, 0.0, 0.0, 0.0, 0.0, 0.0, 0.0, 0.0)",0.485,-0.262,-9.724,"(0.0, 0.0, 0.0, 0.0, 0.0, 0.0, 0.0, 0.0, 0.0)",38503,1678937274,1678937274,imu1_frame,0.2439,0.0216,0.4967,"(0.0, 0.0, 0.0, 0.0, 0.0, 0.0, 0.0, 0.0, 0.0)","$VNYMR,+016.382,+002.880,+001.537,+00.2439,+00.0216,+00.4967,+00.485,-00.262,-09.724,-00.000818,-00.001931,-00.000227*6A
"
1678937274.2953925,2800,1678937274,253094911,imu1_frame,38504,1678937274,1678937274,imu1_frame,0.3166148031504733,-0.149974485822215,-0.7030690017830548,0.6188349527621464,"(0.0, 0.0, 0.0, 0.0, 0.0, 0.0, 0.0, 0.0, 0.0)",-0.000678,0.000298,-0.00088,"(0.0, 0.0, 0.0, 0.0, 0.0, 0.0, 0.0, 0.0, 0.0)",0.489,-0.263,-9.707,"(0.0, 0.0, 0.0, 0.0, 0.0, 0.0, 0.0, 0.0, 0.0)",38504,1678937274,1678937274,imu1_frame,0.2448,0.0177,0.4989,"(0.0, 0.0, 0.0, 0.0, 0.0, 0.0, 0.0, 0.0, 0.0)","$VNYMR,+016.382,+002.879,+001.536,+00.2448,+00.0177,+00.4989,+00.489,-00.263,-09.707,-00.000678,+00.000298,-00.000882*61
"
1678937274.2954319,2801,1678937274,277806997,imu1_frame,38505,1678937274,1678937274,imu1_frame,0.3157606152709587,-0.1487618522879257,-0.7029834299869067,0.619660747757525,"(0.0, 0.0, 0.0, 0.0, 0.0, 0.0, 0.0, 0.0, 0.0)",0.001298,-0.000669,-0.00062,"(0.0, 0.0, 0.0, 0.0, 0.0, 0.0, 0.0, 0.0, 0.0)",0.468,-0.263,-9.718,"(0.0, 0.0, 0.0, 0.0, 0.0, 0.0, 0.0, 0.0, 0.0)",38505,1678937274,1678937274,imu1_frame,0.2429,0.0158,0.5022,"(0.0, 0.0, 0.0, 0.0, 0.0, 0.0, 0.0, 0.0, 0.0)","$VNYMR,+016.379,+002.879,+001.537,+00.2429,+00.0158,+00.5022,+00.468,-00.263,-09.718,+00.001298,-00.000669,-00.000622*63
"
1678937274.339587,2802,1678937274,303155422,imu1_frame,38506,1678937274,1678937274,imu1_frame,0.31551355739356496,-0.14894491738778196,-0.7026043400858276,0.6201723534452039,"(0.0, 0.0, 0.0, 0.0, 0.0, 0.0, 0.0, 0.0, 0.0)",0.000955,-0.000924,-0.00078,"(0.0, 0.0, 0.0, 0.0, 0.0, 0.0, 0.0, 0.0, 0.0)",0.5,-0.281,-9.75,"(0.0, 0.0, 0.0, 0.0, 0.0, 0.0, 0.0, 0.0, 0.0)",38506,1678937274,1678937274,imu1_frame,0.2429,0.0139,0.5066,"(0.0, 0.0, 0.0, 0.0, 0.0, 0.0, 0.0, 0.0, 0.0)","$VNYMR,+016.379,+002.880,+001.538,+00.2429,+00.0139,+00.5066,+00.500,-00.281,-09.750,+00.000955,-00.000924,-00.000783*65
"
1678937274.3396943,2803,1678937274,327534198,imu1_frame,38507,1678937274,1678937274,imu1_frame,0.315524911176475,-0.14825259807490576,-0.7027477258924232,0.6201700019705446,"(0.0, 0.0, 0.0, 0.0, 0.0, 0.0, 0.0, 0.0, 0.0)",0.001585,-0.001094,0.00034,"(0.0, 0.0, 0.0, 0.0, 0.0, 0.0, 0.0, 0.0, 0.0)",0.498,-0.253,-9.732,"(0.0, 0.0, 0.0, 0.0, 0.0, 0.0, 0.0, 0.0, 0.0)",38507,1678937274,1678937274,imu1_frame,0.2439,0.0168,0.5033,"(0.0, 0.0, 0.0, 0.0, 0.0, 0.0, 0.0, 0.0, 0.0)","$VNYMR,+016.378,+002.879,+001.538,+00.2439,+00.0168,+00.5033,+00.498,-00.253,-09.732,+00.001585,-00.001094,+00.000344*66
"
1678937274.387328,2804,1678937274,352492332,imu1_frame,38508,1678937274,1678937274,imu1_frame,0.3152147867477965,-0.14790120569502532,-0.7028217643449083,0.620327686898311,"(0.0, 0.0, 0.0, 0.0, 0.0, 0.0, 0.0, 0.0, 0.0)",0.000305,-0.000918,-0.00104,"(0.0, 0.0, 0.0, 0.0, 0.0, 0.0, 0.0, 0.0, 0.0)",0.494,-0.264,-9.711,"(0.0, 0.0, 0.0, 0.0, 0.0, 0.0, 0.0, 0.0, 0.0)",38508,1678937274,1678937274,imu1_frame,0.2439,0.0177,0.5077,"(0.0, 0.0, 0.0, 0.0, 0.0, 0.0, 0.0, 0.0, 0.0)","$VNYMR,+016.377,+002.879,+001.538,+00.2439,+00.0177,+00.5077,+00.494,-00.264,-09.711,+00.000305,-00.000918,-00.001042*6F
"
1678937274.3874695,2805,1678937274,377763748,imu1_frame,38509,1678937274,1678937274,imu1_frame,0.3141128373779566,-0.1485460611652294,-0.703378584095504,0.6201014114985299,"(0.0, 0.0, 0.0, 0.0, 0.0, 0.0, 0.0, 0.0, 0.0)",-0.000841,0.001571,-0.00088,"(0.0, 0.0, 0.0, 0.0, 0.0, 0.0, 0.0, 0.0, 0.0)",0.502,-0.261,-9.747,"(0.0, 0.0, 0.0, 0.0, 0.0, 0.0, 0.0, 0.0, 0.0)",38509,1678937274,1678937274,imu1_frame,0.2448,0.0148,0.5033,"(0.0, 0.0, 0.0, 0.0, 0.0, 0.0, 0.0, 0.0, 0.0)","$VNYMR,+016.376,+002.881,+001.536,+00.2448,+00.0148,+00.5033,+00.502,-00.261,-09.747,-00.000841,+00.001571,-00.000883*68
"
1678937274.431343,2806,1678937274,402413606,imu1_frame,38510,1678937274,1678937274,imu1_frame,0.3146705098572488,-0.14871441158380888,-0.7036828740656201,0.619432729810275,"(0.0, 0.0, 0.0, 0.0, 0.0, 0.0, 0.0, 0.0, 0.0)",0.000259,0.000544,0.00017,"(0.0, 0.0, 0.0, 0.0, 0.0, 0.0, 0.0, 0.0, 0.0)",0.485,-0.232,-9.734,"(0.0, 0.0, 0.0, 0.0, 0.0, 0.0, 0.0, 0.0, 0.0)",38510,1678937274,1678937274,imu1_frame,0.2458,0.0177,0.5055,"(0.0, 0.0, 0.0, 0.0, 0.0, 0.0, 0.0, 0.0, 0.0)","$VNYMR,+016.377,+002.880,+001.535,+00.2458,+00.0177,+00.5055,+00.485,-00.232,-09.734,+00.000259,+00.000544,+00.000179*62
"
1678937274.4754431,2807,1678937274,427553892,imu1_frame,38511,1678937274,1678937274,imu1_frame,0.3140633172524662,-0.147318067587033,-0.7039732338402387,0.6197445487903187,"(0.0, 0.0, 0.0, 0.0, 0.0, 0.0, 0.0, 0.0, 0.0)",0.00048,0.001719,0.00109,"(0.0, 0.0, 0.0, 0.0, 0.0, 0.0, 0.0, 0.0, 0.0)",0.49,-0.243,-9.704,"(0.0, 0.0, 0.0, 0.0, 0.0, 0.0, 0.0, 0.0, 0.0)",38511,1678937274,1678937274,imu1_frame,0.2448,0.0206,0.4978,"(0.0, 0.0, 0.0, 0.0, 0.0, 0.0, 0.0, 0.0, 0.0)","$VNYMR,+016.374,+002.879,+001.535,+00.2448,+00.0206,+00.4978,+00.490,-00.243,-09.704,+00.000480,+00.001719,+00.001092*69
"
1678937274.4754877,2808,1678937274,452554464,imu1_frame,38512,1678937274,1678937274,imu1_frame,0.31437315025603657,-0.14767003577452936,-0.7038994868128619,0.6195874396701683,"(0.0, 0.0, 0.0, 0.0, 0.0, 0.0, 0.0, 0.0, 0.0)",0.000673,2.4e-05,-0.00201,"(0.0, 0.0, 0.0, 0.0, 0.0, 0.0, 0.0, 0.0, 0.0)",0.489,-0.249,-9.763,"(0.0, 0.0, 0.0, 0.0, 0.0, 0.0, 0.0, 0.0, 0.0)",38512,1678937274,1678937274,imu1_frame,0.2448,0.0138,0.5023,"(0.0, 0.0, 0.0, 0.0, 0.0, 0.0, 0.0, 0.0, 0.0)","$VNYMR,+016.375,+002.879,+001.535,+00.2448,+00.0138,+00.5023,+00.489,-00.249,-09.763,+00.000673,+00.000024,-00.002014*6E
"
1678937274.51954,2809,1678937274,477683305,imu1_frame,38513,1678937274,1678937274,imu1_frame,0.3141369370252768,-0.14716101752019167,-0.7036632735821023,0.6200964579245057,"(0.0, 0.0, 0.0, 0.0, 0.0, 0.0, 0.0, 0.0, 0.0)",0.000482,-0.00241,0.00046,"(0.0, 0.0, 0.0, 0.0, 0.0, 0.0, 0.0, 0.0, 0.0)",0.478,-0.241,-9.727,"(0.0, 0.0, 0.0, 0.0, 0.0, 0.0, 0.0, 0.0, 0.0)",38513,1678937274,1678937274,imu1_frame,0.2429,0.0139,0.5055,"(0.0, 0.0, 0.0, 0.0, 0.0, 0.0, 0.0, 0.0, 0.0)","$VNYMR,+016.374,+002.879,+001.536,+00.2429,+00.0139,+00.5055,+00.478,-00.241,-09.727,+00.000482,-00.002410,+00.000461*64
"
1678937274.5195794,2810,1678937274,502388954,imu1_frame,38514,1678937274,1678937274,imu1_frame,0.31421047826385473,-0.14700393066309675,-0.7033531374081515,0.6204482120345816,"(0.0, 0.0, 0.0, 0.0, 0.0, 0.0, 0.0, 0.0, 0.0)",0.001162,0.0005,0.00189,"(0.0, 0.0, 0.0, 0.0, 0.0, 0.0, 0.0, 0.0, 0.0)",0.496,-0.252,-9.716,"(0.0, 0.0, 0.0, 0.0, 0.0, 0.0, 0.0, 0.0, 0.0)",38514,1678937274,1678937274,imu1_frame,0.2448,0.0206,0.4978,"(0.0, 0.0, 0.0, 0.0, 0.0, 0.0, 0.0, 0.0, 0.0)","$VNYMR,+016.374,+002.879,+001.537,+00.2448,+00.0206,+00.4978,+00.496,-00.252,-09.716,+00.001162,+00.000500,+00.001896*61
"
1678937274.563312,2811,1678937274,527565240,imu1_frame,38515,1678937274,1678937274,imu1_frame,0.31483076926725595,-0.14770721018132105,-0.7032057818254495,0.6201336913846055,"(0.0, 0.0, 0.0, 0.0, 0.0, 0.0, 0.0, 0.0, 0.0)",-0.000355,-0.000569,0.00032,"(0.0, 0.0, 0.0, 0.0, 0.0, 0.0, 0.0, 0.0, 0.0)",0.483,-0.268,-9.735,"(0.0, 0.0, 0.0, 0.0, 0.0, 0.0, 0.0, 0.0, 0.0)",38515,1678937274,1678937274,imu1_frame,0.2457,0.0177,0.499,"(0.0, 0.0, 0.0, 0.0, 0.0, 0.0, 0.0, 0.0, 0.0)","$VNYMR,+016.376,+002.879,+001.537,+00.2457,+00.0177,+00.4990,+00.483,-00.268,-09.735,-00.000355,-00.000569,+00.000322*6F
"
1678937274.5633454,2812,1678937274,553053379,imu1_frame,38516,1678937274,1678937274,imu1_frame,0.3145715893023293,-0.14858323462910275,-0.7026839273193632,0.620647271707526,"(0.0, 0.0, 0.0, 0.0, 0.0, 0.0, 0.0, 0.0, 0.0)",0.000963,0.001182,-0.00074,"(0.0, 0.0, 0.0, 0.0, 0.0, 0.0, 0.0, 0.0, 0.0)",0.48,-0.275,-9.723,"(0.0, 0.0, 0.0, 0.0, 0.0, 0.0, 0.0, 0.0, 0.0)",38516,1678937274,1678937274,imu1_frame,0.2439,0.0148,0.5044,"(0.0, 0.0, 0.0, 0.0, 0.0, 0.0, 0.0, 0.0, 0.0)","$VNYMR,+016.377,+002.881,+001.538,+00.2439,+00.0148,+00.5044,+00.480,-00.275,-09.723,+00.000963,+00.001182,-00.000749*6B
"
1678937274.6113431,2813,1678937274,577778577,imu1_frame,38517,1678937274,1678937274,imu1_frame,0.3146568503554652,-0.1477335337579364,-0.7025165566449995,0.620996261798269,"(0.0, 0.0, 0.0, 0.0, 0.0, 0.0, 0.0, 0.0, 0.0)",0.000436,-0.002273,-0.00024,"(0.0, 0.0, 0.0, 0.0, 0.0, 0.0, 0.0, 0.0, 0.0)",0.476,-0.264,-9.741,"(0.0, 0.0, 0.0, 0.0, 0.0, 0.0, 0.0, 0.0, 0.0)",38517,1678937274,1678937274,imu1_frame,0.2448,0.0138,0.5033,"(0.0, 0.0, 0.0, 0.0, 0.0, 0.0, 0.0, 0.0, 0.0)","$VNYMR,+016.376,+002.880,+001.539,+00.2448,+00.0138,+00.5033,+00.476,-00.264,-09.741,+00.000436,-00.002273,-00.000249*66
"
1678937274.6118016,2814,1678937274,602416038,imu1_frame,38518,1678937274,1678937274,imu1_frame,0.31504131215410025,-0.14792727139632578,-0.7021320948463639,0.6211899994366596,"(0.0, 0.0, 0.0, 0.0, 0.0, 0.0, 0.0, 0.0, 0.0)",0.000663,-0.001944,0.0004,"(0.0, 0.0, 0.0, 0.0, 0.0, 0.0, 0.0, 0.0, 0.0)",0.469,-0.262,-9.753,"(0.0, 0.0, 0.0, 0.0, 0.0, 0.0, 0.0, 0.0, 0.0)",38518,1678937274,1678937274,imu1_frame,0.2467,0.0157,0.5034,"(0.0, 0.0, 0.0, 0.0, 0.0, 0.0, 0.0, 0.0, 0.0)","$VNYMR,+016.377,+002.880,+001.540,+00.2467,+00.0157,+00.5034,+00.469,-00.262,-09.753,+00.000663,-00.001944,+00.000406*64
"
1678937274.6554356,2815,1678937274,627566337,imu1_frame,38519,1678937274,1678937274,imu1_frame,0.31348735426960295,-0.1461714807151963,-0.7024997184779738,0.6219756606788877,"(0.0, 0.0, 0.0, 0.0, 0.0, 0.0, 0.0, 0.0, 0.0)",0.000865,0.002262,-0.0002,"(0.0, 0.0, 0.0, 0.0, 0.0, 0.0, 0.0, 0.0, 0.0)",0.474,-0.255,-9.705,"(0.0, 0.0, 0.0, 0.0, 0.0, 0.0, 0.0, 0.0, 0.0)",38519,1678937274,1678937274,imu1_frame,0.2458,0.0225,0.5033,"(0.0, 0.0, 0.0, 0.0, 0.0, 0.0, 0.0, 0.0, 0.0)","$VNYMR,+016.372,+002.880,+001.540,+00.2458,+00.0225,+00.5033,+00.474,-00.255,-09.705,+00.000865,+00.002262,-00.000209*6A
"
1678937274.6994271,2816,1678937274,652952909,imu1_frame,38520,1678937274,1678937274,imu1_frame,0.3125034805908966,-0.14388762002371203,-0.7033084740688968,0.6220893165176259,"(0.0, 0.0, 0.0, 0.0, 0.0, 0.0, 0.0, 0.0, 0.0)",1.5e-05,-0.000233,-0.00111,"(0.0, 0.0, 0.0, 0.0, 0.0, 0.0, 0.0, 0.0, 0.0)",0.472,-0.263,-9.759,"(0.0, 0.0, 0.0, 0.0, 0.0, 0.0, 0.0, 0.0, 0.0)",38520,1678937274,1678937274,imu1_frame,0.2458,0.0129,0.5045,"(0.0, 0.0, 0.0, 0.0, 0.0, 0.0, 0.0, 0.0, 0.0)","$VNYMR,+016.367,+002.878,+001.539,+00.2458,+00.0129,+00.5045,+00.472,-00.263,-09.759,+00.000015,-00.000233,-00.001118*6E
"
1678937274.6994638,2817,1678937274,677519083,imu1_frame,38521,1678937274,1678937274,imu1_frame,0.3125145039013999,-0.14319430838182132,-0.7034470112855955,0.6220871138447388,"(0.0, 0.0, 0.0, 0.0, 0.0, 0.0, 0.0, 0.0, 0.0)",0.000269,-0.001972,-0.0008,"(0.0, 0.0, 0.0, 0.0, 0.0, 0.0, 0.0, 0.0, 0.0)",0.504,-0.236,-9.729,"(0.0, 0.0, 0.0, 0.0, 0.0, 0.0, 0.0, 0.0, 0.0)",38521,1678937274,1678937274,imu1_frame,0.2439,0.0225,0.4967,"(0.0, 0.0, 0.0, 0.0, 0.0, 0.0, 0.0, 0.0, 0.0)","$VNYMR,+016.366,+002.877,+001.539,+00.2439,+00.0225,+00.4967,+00.504,-00.236,-09.729,+00.000269,-00.001972,-00.000808*68
"
1678937274.7434955,2818,1678937274,702295780,imu1_frame,38522,1678937274,1678937274,imu1_frame,0.3118096040243004,-0.14334016243609238,-0.7037631228207163,0.6220497051109637,"(0.0, 0.0, 0.0, 0.0, 0.0, 0.0, 0.0, 0.0, 0.0)",0.000455,0.00112,-0.00025,"(0.0, 0.0, 0.0, 0.0, 0.0, 0.0, 0.0, 0.0, 0.0)",0.507,-0.26,-9.717,"(0.0, 0.0, 0.0, 0.0, 0.0, 0.0, 0.0, 0.0, 0.0)",38522,1678937274,1678937274,imu1_frame,0.2458,0.0167,0.5023,"(0.0, 0.0, 0.0, 0.0, 0.0, 0.0, 0.0, 0.0, 0.0)","$VNYMR,+016.365,+002.878,+001.538,+00.2458,+00.0167,+00.5023,+00.507,-00.260,-09.717,+00.000455,+00.001120,-00.000251*64
"
1678937274.7435312,2819,1678937274,727441072,imu1_frame,38523,1678937274,1678937274,imu1_frame,0.3114270071426816,-0.14314399436190683,-0.7041457197023356,0.6218535370367771,"(0.0, 0.0, 0.0, 0.0, 0.0, 0.0, 0.0, 0.0, 0.0)",0.00033,-0.002603,-0.00026,"(0.0, 0.0, 0.0, 0.0, 0.0, 0.0, 0.0, 0.0, 0.0)",0.484,-0.242,-9.743,"(0.0, 0.0, 0.0, 0.0, 0.0, 0.0, 0.0, 0.0, 0.0)",38523,1678937274,1678937274,imu1_frame,0.2448,0.0167,0.5044,"(0.0, 0.0, 0.0, 0.0, 0.0, 0.0, 0.0, 0.0, 0.0)","$VNYMR,+016.364,+002.878,+001.537,+00.2448,+00.0167,+00.5044,+00.484,-00.242,-09.743,+00.000330,-00.002603,-00.000262*66
"
1678937274.787354,2820,1678937274,753082990,imu1_frame,38524,1678937274,1678937274,imu1_frame,0.31163148759955744,-0.14172702444174043,-0.70510684220314,0.6209859962653693,"(0.0, 0.0, 0.0, 0.0, 0.0, 0.0, 0.0, 0.0, 0.0)",0.000274,-0.000987,0.00103,"(0.0, 0.0, 0.0, 0.0, 0.0, 0.0, 0.0, 0.0, 0.0)",0.485,-0.252,-9.774,"(0.0, 0.0, 0.0, 0.0, 0.0, 0.0, 0.0, 0.0, 0.0)",38524,1678937274,1678937274,imu1_frame,0.2439,0.0139,0.5077,"(0.0, 0.0, 0.0, 0.0, 0.0, 0.0, 0.0, 0.0, 0.0)","$VNYMR,+016.362,+002.875,+001.535,+00.2439,+00.0139,+00.5077,+00.485,-00.252,-09.774,+00.000274,-00.000987,+00.001034*60
"
1678937274.7873886,2821,1678937274,777559518,imu1_frame,38525,1678937274,1678937274,imu1_frame,0.3113916039690233,-0.14121877517630105,-0.704866958572605,0.6214942455308092,"(0.0, 0.0, 0.0, 0.0, 0.0, 0.0, 0.0, 0.0, 0.0)",0.00092,0.001946,-7e-05,"(0.0, 0.0, 0.0, 0.0, 0.0, 0.0, 0.0, 0.0, 0.0)",0.47,-0.245,-9.723,"(0.0, 0.0, 0.0, 0.0, 0.0, 0.0, 0.0, 0.0, 0.0)",38525,1678937274,1678937274,imu1_frame,0.2439,0.0129,0.5033,"(0.0, 0.0, 0.0, 0.0, 0.0, 0.0, 0.0, 0.0, 0.0)","$VNYMR,+016.361,+002.875,+001.536,+00.2439,+00.0129,+00.5033,+00.470,-00.245,-09.723,+00.000920,+00.001946,-00.000078*60
"
1678937274.831512,2822,1678937274,802272796,imu1_frame,38526,1678937274,1678937274,imu1_frame,0.31130853714653933,-0.14206822214460596,-0.7050415123920605,0.6211441706723718,"(0.0, 0.0, 0.0, 0.0, 0.0, 0.0, 0.0, 0.0, 0.0)",0.000781,0.001411,0.0003,"(0.0, 0.0, 0.0, 0.0, 0.0, 0.0, 0.0, 0.0, 0.0)",0.477,-0.25,-9.726,"(0.0, 0.0, 0.0, 0.0, 0.0, 0.0, 0.0, 0.0, 0.0)",38526,1678937274,1678937274,imu1_frame,0.2458,0.0138,0.5034,"(0.0, 0.0, 0.0, 0.0, 0.0, 0.0, 0.0, 0.0, 0.0)","$VNYMR,+016.362,+002.876,+001.535,+00.2458,+00.0138,+00.5034,+00.477,-00.250,-09.726,+00.000781,+00.001411,+00.000303*66
"
1678937274.83785,2823,1678937274,827608585,imu1_frame,38527,1678937274,1678937274,imu1_frame,0.3126460381020874,-0.14193458722172492,-0.7047199115670033,0.6208678394394911,"(0.0, 0.0, 0.0, 0.0, 0.0, 0.0, 0.0, 0.0, 0.0)",0.00064,0.000288,-0.00032,"(0.0, 0.0, 0.0, 0.0, 0.0, 0.0, 0.0, 0.0, 0.0)",0.501,-0.267,-9.72,"(0.0, 0.0, 0.0, 0.0, 0.0, 0.0, 0.0, 0.0, 0.0)",38527,1678937274,1678937274,imu1_frame,0.2458,0.0167,0.5023,"(0.0, 0.0, 0.0, 0.0, 0.0, 0.0, 0.0, 0.0, 0.0)","$VNYMR,+016.364,+002.874,+001.536,+00.2458,+00.0167,+00.5023,+00.501,-00.267,-09.720,+00.000640,+00.000288,-00.000328*6B
"
1678937274.8794703,2824,1678937274,852776527,imu1_frame,38528,1678937274,1678937274,imu1_frame,0.31302753727031063,-0.1421304334251929,-0.7043384123987795,0.6210636856429604,"(0.0, 0.0, 0.0, 0.0, 0.0, 0.0, 0.0, 0.0, 0.0)",0.001042,-0.000862,-0.00108,"(0.0, 0.0, 0.0, 0.0, 0.0, 0.0, 0.0, 0.0, 0.0)",0.486,-0.269,-9.749,"(0.0, 0.0, 0.0, 0.0, 0.0, 0.0, 0.0, 0.0, 0.0)",38528,1678937274,1678937274,imu1_frame,0.2476,0.0157,0.5034,"(0.0, 0.0, 0.0, 0.0, 0.0, 0.0, 0.0, 0.0, 0.0)","$VNYMR,+016.365,+002.874,+001.537,+00.2476,+00.0157,+00.5034,+00.486,-00.269,-09.749,+00.001042,-00.000862,-00.001086*66
"
1678937274.923489,2825,1678937274,877560138,imu1_frame,38529,1678937274,1678937274,imu1_frame,0.31208386519631276,-0.14176754720286033,-0.7044147080381692,0.6215348282628378,"(0.0, 0.0, 0.0, 0.0, 0.0, 0.0, 0.0, 0.0, 0.0)",0.000108,0.00291,-0.00129,"(0.0, 0.0, 0.0, 0.0, 0.0, 0.0, 0.0, 0.0, 0.0)",0.507,-0.232,-9.755,"(0.0, 0.0, 0.0, 0.0, 0.0, 0.0, 0.0, 0.0, 0.0)",38529,1678937274,1678937274,imu1_frame,0.2439,0.012,0.5044,"(0.0, 0.0, 0.0, 0.0, 0.0, 0.0, 0.0, 0.0, 0.0)","$VNYMR,+016.363,+002.875,+001.537,+00.2439,+00.0120,+00.5044,+00.507,-00.232,-09.755,+00.000108,+00.002910,-00.001295*68
"
1678937274.9235375,2826,1678937274,902292966,imu1_frame,38530,1678937274,1678937274,imu1_frame,0.31075788014114464,-0.14120774843298778,-0.7048724123505526,0.6218076825030232,"(0.0, 0.0, 0.0, 0.0, 0.0, 0.0, 0.0, 0.0, 0.0)",4e-05,0.001296,-0.00175,"(0.0, 0.0, 0.0, 0.0, 0.0, 0.0, 0.0, 0.0, 0.0)",0.483,-0.257,-9.771,"(0.0, 0.0, 0.0, 0.0, 0.0, 0.0, 0.0, 0.0, 0.0)",38530,1678937274,1678937274,imu1_frame,0.2458,0.0148,0.5045,"(0.0, 0.0, 0.0, 0.0, 0.0, 0.0, 0.0, 0.0, 0.0)","$VNYMR,+016.360,+002.876,+001.536,+00.2458,+00.0148,+00.5045,+00.483,-00.257,-09.771,+00.000040,+00.001296,-00.001751*6F
"
1678937274.9674184,2827,1678937274,927400350,imu1_frame,38531,1678937274,1678937274,imu1_frame,0.31146217442971974,-0.14106306172845728,-0.7045561233544194,0.6218466013086317,"(0.0, 0.0, 0.0, 0.0, 0.0, 0.0, 0.0, 0.0, 0.0)",0.000528,-0.000446,-4e-05,"(0.0, 0.0, 0.0, 0.0, 0.0, 0.0, 0.0, 0.0, 0.0)",0.489,-0.273,-9.724,"(0.0, 0.0, 0.0, 0.0, 0.0, 0.0, 0.0, 0.0, 0.0)",38531,1678937274,1678937274,imu1_frame,0.2429,0.011,0.5055,"(0.0, 0.0, 0.0, 0.0, 0.0, 0.0, 0.0, 0.0, 0.0)","$VNYMR,+016.361,+002.875,+001.537,+00.2429,+00.0110,+00.5055,+00.489,-00.273,-09.724,+00.000528,-00.000446,-00.000043*68
"
1678937274.9674597,2828,1678937274,952352046,imu1_frame,38532,1678937274,1678937274,imu1_frame,0.3105876375157728,-0.14054477727716158,-0.7043206127612925,0.6226676155398169,"(0.0, 0.0, 0.0, 0.0, 0.0, 0.0, 0.0, 0.0, 0.0)",0.000561,0.00035,-9e-05,"(0.0, 0.0, 0.0, 0.0, 0.0, 0.0, 0.0, 0.0, 0.0)",0.484,-0.259,-9.711,"(0.0, 0.0, 0.0, 0.0, 0.0, 0.0, 0.0, 0.0, 0.0)",38532,1678937274,1678937274,imu1_frame,0.2439,0.0129,0.5044,"(0.0, 0.0, 0.0, 0.0, 0.0, 0.0, 0.0, 0.0, 0.0)","$VNYMR,+016.359,+002.876,+001.538,+00.2439,+00.0129,+00.5044,+00.484,-00.259,-09.711,+00.000561,+00.000350,-00.000090*62
"
1678937275.011353,2829,1678937274,977350950,imu1_frame,38533,1678937274,1678937274,imu1_frame,0.3106468390450436,-0.14108332613957014,-0.7038734280571903,0.6230218565602157,"(0.0, 0.0, 0.0, 0.0, 0.0, 0.0, 0.0, 0.0, 0.0)",0.001639,0.003038,-0.00082,"(0.0, 0.0, 0.0, 0.0, 0.0, 0.0, 0.0, 0.0, 0.0)",0.494,-0.248,-9.775,"(0.0, 0.0, 0.0, 0.0, 0.0, 0.0, 0.0, 0.0, 0.0)",38533,1678937274,1678937274,imu1_frame,0.2448,0.0148,0.5055,"(0.0, 0.0, 0.0, 0.0, 0.0, 0.0, 0.0, 0.0, 0.0)","$VNYMR,+016.360,+002.877,+001.539,+00.2448,+00.0148,+00.5055,+00.494,-00.248,-09.775,+00.001639,+00.003038,-00.000822*6A
"
1678937275.011692,2830,1678937275,2253532,imu1_frame,38534,1678937275,1678937275,imu1_frame,0.3109803751927031,-0.14004752489139827,-0.7040743241174023,0.6228621381456909,"(0.0, 0.0, 0.0, 0.0, 0.0, 0.0, 0.0, 0.0, 0.0)",0.001205,-0.002592,0.00025,"(0.0, 0.0, 0.0, 0.0, 0.0, 0.0, 0.0, 0.0, 0.0)",0.485,-0.244,-9.723,"(0.0, 0.0, 0.0, 0.0, 0.0, 0.0, 0.0, 0.0, 0.0)",38534,1678937275,1678937275,imu1_frame,0.2458,0.0158,0.5055,"(0.0, 0.0, 0.0, 0.0, 0.0, 0.0, 0.0, 0.0, 0.0)","$VNYMR,+016.359,+002.875,+001.539,+00.2458,+00.0158,+00.5055,+00.485,-00.244,-09.723,+00.001205,-00.002592,+00.000254*69
"
1678937275.0553696,2831,1678937275,27610540,imu1_frame,38535,1678937275,1678937275,imu1_frame,0.3118551064328547,-0.1405655633027173,-0.7043103320859764,0.622040731079633,"(0.0, 0.0, 0.0, 0.0, 0.0, 0.0, 0.0, 0.0, 0.0)",0.000953,0.001267,0.0003,"(0.0, 0.0, 0.0, 0.0, 0.0, 0.0, 0.0, 0.0, 0.0)",0.49,-0.263,-9.768,"(0.0, 0.0, 0.0, 0.0, 0.0, 0.0, 0.0, 0.0, 0.0)",38535,1678937275,1678937275,imu1_frame,0.242,0.012,0.5033,"(0.0, 0.0, 0.0, 0.0, 0.0, 0.0, 0.0, 0.0, 0.0)","$VNYMR,+016.361,+002.874,+001.538,+00.2420,+00.0120,+00.5033,+00.490,-00.263,-09.768,+00.000953,+00.001267,+00.000307*6A
"
1678937275.0995026,2832,1678937275,52347660,imu1_frame,38536,1678937275,1678937275,imu1_frame,0.31183235074156046,-0.1419531364741286,-0.7040381147533755,0.6220451953440864,"(0.0, 0.0, 0.0, 0.0, 0.0, 0.0, 0.0, 0.0, 0.0)",7e-06,0.000168,0.00025,"(0.0, 0.0, 0.0, 0.0, 0.0, 0.0, 0.0, 0.0, 0.0)",0.498,-0.246,-9.734,"(0.0, 0.0, 0.0, 0.0, 0.0, 0.0, 0.0, 0.0, 0.0)",38536,1678937275,1678937275,imu1_frame,0.2439,0.0139,0.5077,"(0.0, 0.0, 0.0, 0.0, 0.0, 0.0, 0.0, 0.0, 0.0)","$VNYMR,+016.363,+002.876,+001.538,+00.2439,+00.0139,+00.5077,+00.498,-00.246,-09.734,+00.000007,+00.000168,+00.000259*63
"
1678937275.0995426,2833,1678937275,77356338,imu1_frame,38537,1678937275,1678937275,imu1_frame,0.31119877300414706,-0.14194274603151916,-0.7040432602875405,0.6223589544414344,"(0.0, 0.0, 0.0, 0.0, 0.0, 0.0, 0.0, 0.0, 0.0)",0.000762,0.000335,0.00057,"(0.0, 0.0, 0.0, 0.0, 0.0, 0.0, 0.0, 0.0, 0.0)",0.485,-0.25,-9.732,"(0.0, 0.0, 0.0, 0.0, 0.0, 0.0, 0.0, 0.0, 0.0)",38537,1678937275,1678937275,imu1_frame,0.2439,0.0119,0.5011,"(0.0, 0.0, 0.0, 0.0, 0.0, 0.0, 0.0, 0.0, 0.0)","$VNYMR,+016.362,+002.877,+001.538,+00.2439,+00.0119,+00.5011,+00.485,-00.250,-09.732,+00.000762,+00.000335,+00.000571*6F
"
1678937275.1433964,2834,1678937275,102224349,imu1_frame,38538,1678937275,1678937275,imu1_frame,0.3114504496907503,-0.14175684262523902,-0.7044200158041852,0.6218489014951974,"(0.0, 0.0, 0.0, 0.0, 0.0, 0.0, 0.0, 0.0, 0.0)",-0.000696,-0.001865,-0.00028,"(0.0, 0.0, 0.0, 0.0, 0.0, 0.0, 0.0, 0.0, 0.0)",0.503,-0.25,-9.71,"(0.0, 0.0, 0.0, 0.0, 0.0, 0.0, 0.0, 0.0, 0.0)",38538,1678937275,1678937275,imu1_frame,0.2467,0.0138,0.5034,"(0.0, 0.0, 0.0, 0.0, 0.0, 0.0, 0.0, 0.0, 0.0)","$VNYMR,+016.362,+002.876,+001.537,+00.2467,+00.0138,+00.5034,+00.503,-00.250,-09.710,-00.000696,-00.001865,-00.000287*6C
"
1678937275.1434374,2835,1678937275,127255201,imu1_frame,38539,1678937275,1678937275,imu1_frame,0.31239459358701355,-0.1421197368212615,-0.7043437362156845,0.6213787086448892,"(0.0, 0.0, 0.0, 0.0, 0.0, 0.0, 0.0, 0.0, 0.0)",5.1e-05,-0.00193,0.00093,"(0.0, 0.0, 0.0, 0.0, 0.0, 0.0, 0.0, 0.0, 0.0)",0.501,-0.259,-9.735,"(0.0, 0.0, 0.0, 0.0, 0.0, 0.0, 0.0, 0.0, 0.0)",38539,1678937275,1678937275,imu1_frame,0.2467,0.0196,0.4979,"(0.0, 0.0, 0.0, 0.0, 0.0, 0.0, 0.0, 0.0, 0.0)","$VNYMR,+016.364,+002.875,+001.537,+00.2467,+00.0196,+00.4979,+00.501,-00.259,-09.735,+00.000051,-00.001930,+00.000937*6C
"
1678937275.1872969,2836,1678937275,152661561,imu1_frame,38540,1678937275,1678937275,imu1_frame,0.3117496139217383,-0.142802610853892,-0.7042119012652573,0.6216954163168089,"(0.0, 0.0, 0.0, 0.0, 0.0, 0.0, 0.0, 0.0, 0.0)",-0.000345,0.003374,-0.00138,"(0.0, 0.0, 0.0, 0.0, 0.0, 0.0, 0.0, 0.0, 0.0)",0.471,-0.256,-9.751,"(0.0, 0.0, 0.0, 0.0, 0.0, 0.0, 0.0, 0.0, 0.0)",38540,1678937275,1678937275,imu1_frame,0.2458,0.0186,0.5011,"(0.0, 0.0, 0.0, 0.0, 0.0, 0.0, 0.0, 0.0, 0.0)","$VNYMR,+016.364,+002.877,+001.537,+00.2458,+00.0186,+00.5011,+00.471,-00.256,-09.751,-00.000345,+00.003374,-00.001389*68
"
1678937275.1873312,2837,1678937275,177305698,imu1_frame,38541,1678937275,1678937275,imu1_frame,0.31200087316152125,-0.14261720990245697,-0.7045885872976086,0.6211849235421338,"(0.0, 0.0, 0.0, 0.0, 0.0, 0.0, 0.0, 0.0, 0.0)",0.000633,-0.002497,-0.0007,"(0.0, 0.0, 0.0, 0.0, 0.0, 0.0, 0.0, 0.0, 0.0)",0.488,-0.242,-9.74,"(0.0, 0.0, 0.0, 0.0, 0.0, 0.0, 0.0, 0.0, 0.0)",38541,1678937275,1678937275,imu1_frame,0.2458,0.0119,0.5056,"(0.0, 0.0, 0.0, 0.0, 0.0, 0.0, 0.0, 0.0, 0.0)","$VNYMR,+016.364,+002.876,+001.536,+00.2458,+00.0119,+00.5056,+00.488,-00.242,-09.740,+00.000633,-00.002497,-00.000709*6C
"
1678937275.2312636,2838,1678937275,202275514,imu1_frame,38542,1678937275,1678937275,imu1_frame,0.31238287231151296,-0.14281331277629106,-0.7042065881476165,0.6213810264159693,"(0.0, 0.0, 0.0, 0.0, 0.0, 0.0, 0.0, 0.0, 0.0)",0.000442,0.001993,-0.00205,"(0.0, 0.0, 0.0, 0.0, 0.0, 0.0, 0.0, 0.0, 0.0)",0.479,-0.247,-9.761,"(0.0, 0.0, 0.0, 0.0, 0.0, 0.0, 0.0, 0.0, 0.0)",38542,1678937275,1678937275,imu1_frame,0.2476,0.0138,0.5056,"(0.0, 0.0, 0.0, 0.0, 0.0, 0.0, 0.0, 0.0, 0.0)","$VNYMR,+016.365,+002.876,+001.537,+00.2476,+00.0138,+00.5056,+00.479,-00.247,-09.761,+00.000442,+00.001993,-00.002057*6D
"
1678937275.237245,2839,1678937275,227388858,imu1_frame,38543,1678937275,1678937275,imu1_frame,0.31191711194296434,-0.14346668773282142,-0.7047615992263578,0.6208350127401322,"(0.0, 0.0, 0.0, 0.0, 0.0, 0.0, 0.0, 0.0, 0.0)",-0.000652,0.001508,0.00058,"(0.0, 0.0, 0.0, 0.0, 0.0, 0.0, 0.0, 0.0, 0.0)",0.511,-0.236,-9.747,"(0.0, 0.0, 0.0, 0.0, 0.0, 0.0, 0.0, 0.0, 0.0)",38543,1678937275,1678937275,imu1_frame,0.2448,0.0158,0.5022,"(0.0, 0.0, 0.0, 0.0, 0.0, 0.0, 0.0, 0.0, 0.0)","$VNYMR,+016.365,+002.877,+001.535,+00.2448,+00.0158,+00.5022,+00.511,-00.236,-09.747,-00.000652,+00.001508,+00.000583*68
"
1678937275.2794302,2840,1678937275,252676010,imu1_frame,38544,1678937275,1678937275,imu1_frame,0.3128480132061698,-0.14452366833523922,-0.704545606418808,0.6203664388084127,"(0.0, 0.0, 0.0, 0.0, 0.0, 0.0, 0.0, 0.0, 0.0)",0.00044,0.00245,0.00063,"(0.0, 0.0, 0.0, 0.0, 0.0, 0.0, 0.0, 0.0, 0.0)",0.481,-0.268,-9.742,"(0.0, 0.0, 0.0, 0.0, 0.0, 0.0, 0.0, 0.0, 0.0)",38544,1678937275,1678937275,imu1_frame,0.2439,0.0148,0.5055,"(0.0, 0.0, 0.0, 0.0, 0.0, 0.0, 0.0, 0.0, 0.0)","$VNYMR,+016.368,+002.877,+001.535,+00.2439,+00.0148,+00.5055,+00.481,-00.268,-09.742,+00.000440,+00.002450,+00.000635*62
"
1678937275.3233616,2841,1678937275,277232170,imu1_frame,38545,1678937275,1678937275,imu1_frame,0.31308568020336947,-0.14503248402095203,-0.7047832734160072,0.6198576231227002,"(0.0, 0.0, 0.0, 0.0, 0.0, 0.0, 0.0, 0.0, 0.0)",0.000352,-0.000291,0.00017,"(0.0, 0.0, 0.0, 0.0, 0.0, 0.0, 0.0, 0.0, 0.0)",0.474,-0.252,-9.766,"(0.0, 0.0, 0.0, 0.0, 0.0, 0.0, 0.0, 0.0, 0.0)",38545,1678937275,1678937275,imu1_frame,0.2458,0.0215,0.5033,"(0.0, 0.0, 0.0, 0.0, 0.0, 0.0, 0.0, 0.0, 0.0)","$VNYMR,+016.369,+002.877,+001.534,+00.2458,+00.0215,+00.5033,+00.474,-00.252,-09.766,+00.000352,-00.000291,+00.000178*6E
"
1678937275.3234053,2842,1678937275,302165746,imu1_frame,38546,1678937275,1678937275,imu1_frame,0.31256261565929316,-0.14278452486555,-0.7048934585011501,0.620517850600148,"(0.0, 0.0, 0.0, 0.0, 0.0, 0.0, 0.0, 0.0, 0.0)",0.000671,-0.001285,-0.00097,"(0.0, 0.0, 0.0, 0.0, 0.0, 0.0, 0.0, 0.0, 0.0)",0.493,-0.246,-9.719,"(0.0, 0.0, 0.0, 0.0, 0.0, 0.0, 0.0, 0.0, 0.0)",38546,1678937275,1678937275,imu1_frame,0.2448,0.0148,0.5055,"(0.0, 0.0, 0.0, 0.0, 0.0, 0.0, 0.0, 0.0, 0.0)","$VNYMR,+016.365,+002.875,+001.535,+00.2448,+00.0148,+00.5055,+00.493,-00.246,-09.719,+00.000671,-00.001285,-00.000979*60
"
1678937275.3674936,2843,1678937275,327323913,imu1_frame,38547,1678937275,1678937275,imu1_frame,0.3116190703053692,-0.1424207251275867,-0.7049703901537606,0.6209884387672643,"(0.0, 0.0, 0.0, 0.0, 0.0, 0.0, 0.0, 0.0, 0.0)",0.00069,0.001912,0.00038,"(0.0, 0.0, 0.0, 0.0, 0.0, 0.0, 0.0, 0.0, 0.0)",0.486,-0.273,-9.75,"(0.0, 0.0, 0.0, 0.0, 0.0, 0.0, 0.0, 0.0, 0.0)",38547,1678937275,1678937275,imu1_frame,0.2448,0.0158,0.499,"(0.0, 0.0, 0.0, 0.0, 0.0, 0.0, 0.0, 0.0, 0.0)","$VNYMR,+016.363,+002.876,+001.535,+00.2448,+00.0158,+00.4990,+00.486,-00.273,-09.750,+00.000690,+00.001912,+00.000382*6E
"
1678937275.367535,2844,1678937275,352771759,imu1_frame,38548,1678937275,1678937275,imu1_frame,0.3123234946722403,-0.14227591634658004,-0.7046543375140962,0.6210264591191182,"(0.0, 0.0, 0.0, 0.0, 0.0, 0.0, 0.0, 0.0, 0.0)",-2.1e-05,-0.002383,-0.00082,"(0.0, 0.0, 0.0, 0.0, 0.0, 0.0, 0.0, 0.0, 0.0)",0.485,-0.242,-9.72,"(0.0, 0.0, 0.0, 0.0, 0.0, 0.0, 0.0, 0.0, 0.0)",38548,1678937275,1678937275,imu1_frame,0.2439,0.012,0.5055,"(0.0, 0.0, 0.0, 0.0, 0.0, 0.0, 0.0, 0.0, 0.0)","$VNYMR,+016.364,+002.875,+001.536,+00.2439,+00.0120,+00.5055,+00.485,-00.242,-09.720,-00.000021,-00.002383,-00.000824*6B
"
1678937275.4113753,2845,1678937275,377301216,imu1_frame,38549,1678937275,1678937275,imu1_frame,0.31101034589105925,-0.14102184685354913,-0.7052482166505688,0.6212973172080579,"(0.0, 0.0, 0.0, 0.0, 0.0, 0.0, 0.0, 0.0, 0.0)",0.000496,0.001108,-0.00058,"(0.0, 0.0, 0.0, 0.0, 0.0, 0.0, 0.0, 0.0, 0.0)",0.49,-0.248,-9.748,"(0.0, 0.0, 0.0, 0.0, 0.0, 0.0, 0.0, 0.0, 0.0)",38549,1678937275,1678937275,imu1_frame,0.2439,0.0187,0.4956,"(0.0, 0.0, 0.0, 0.0, 0.0, 0.0, 0.0, 0.0, 0.0)","$VNYMR,+016.360,+002.875,+001.535,+00.2439,+00.0187,+00.4956,+00.490,-00.248,-09.748,+00.000496,+00.001108,-00.000589*6A
"
1678937275.4132876,2846,1678937275,403042554,imu1_frame,38550,1678937275,1678937275,imu1_frame,0.3103764710178868,-0.14101050044588492,-0.7052538214738109,0.621610434515919,"(0.0, 0.0, 0.0, 0.0, 0.0, 0.0, 0.0, 0.0, 0.0)",-0.000422,-0.002767,0.00034,"(0.0, 0.0, 0.0, 0.0, 0.0, 0.0, 0.0, 0.0, 0.0)",0.491,-0.252,-9.754,"(0.0, 0.0, 0.0, 0.0, 0.0, 0.0, 0.0, 0.0, 0.0)",38550,1678937275,1678937275,imu1_frame,0.2448,0.0206,0.5011,"(0.0, 0.0, 0.0, 0.0, 0.0, 0.0, 0.0, 0.0, 0.0)","$VNYMR,+016.359,+002.876,+001.535,+00.2448,+00.0206,+00.5011,+00.491,-00.252,-09.754,-00.000422,-00.002767,+00.000340*65
"
1678937275.4553587,2847,1678937275,427203655,imu1_frame,38551,1678937275,1678937275,imu1_frame,0.31014799352361977,-0.13980875976152152,-0.7051479862012189,0.6221157853354821,"(0.0, 0.0, 0.0, 0.0, 0.0, 0.0, 0.0, 0.0, 0.0)",0.001373,-0.001235,-0.00094,"(0.0, 0.0, 0.0, 0.0, 0.0, 0.0, 0.0, 0.0, 0.0)",0.483,-0.276,-9.763,"(0.0, 0.0, 0.0, 0.0, 0.0, 0.0, 0.0, 0.0, 0.0)",38551,1678937275,1678937275,imu1_frame,0.2458,0.0167,0.5023,"(0.0, 0.0, 0.0, 0.0, 0.0, 0.0, 0.0, 0.0, 0.0)","$VNYMR,+016.357,+002.875,+001.536,+00.2458,+00.0167,+00.5023,+00.483,-00.276,-09.763,+00.001373,-00.001235,-00.000940*67
"
1678937275.4994242,2848,1678937275,452248811,imu1_frame,38552,1678937275,1678937275,imu1_frame,0.3085675744628209,-0.1394340821997741,-0.7052286437797858,0.6228938502696604,"(0.0, 0.0, 0.0, 0.0, 0.0, 0.0, 0.0, 0.0, 0.0)",0.000863,0.002905,0.00032,"(0.0, 0.0, 0.0, 0.0, 0.0, 0.0, 0.0, 0.0, 0.0)",0.489,-0.247,-9.714,"(0.0, 0.0, 0.0, 0.0, 0.0, 0.0, 0.0, 0.0, 0.0)",38552,1678937275,1678937275,imu1_frame,0.2476,0.0186,0.5045,"(0.0, 0.0, 0.0, 0.0, 0.0, 0.0, 0.0, 0.0, 0.0)","$VNYMR,+016.354,+002.877,+001.536,+00.2476,+00.0186,+00.5045,+00.489,-00.247,-09.714,+00.000863,+00.002905,+00.000328*69
"
1678937275.4994662,2849,1678937275,477153062,imu1_frame,38553,1678937275,1678937275,imu1_frame,0.3080021196108248,-0.13926904738143175,-0.7049223575249052,0.6235569714294253,"(0.0, 0.0, 0.0, 0.0, 0.0, 0.0, 0.0, 0.0, 0.0)",0.001444,-0.0006,-0.00032,"(0.0, 0.0, 0.0, 0.0, 0.0, 0.0, 0.0, 0.0, 0.0)",0.487,-0.285,-9.774,"(0.0, 0.0, 0.0, 0.0, 0.0, 0.0, 0.0, 0.0, 0.0)",38553,1678937275,1678937275,imu1_frame,0.2448,0.0158,0.5044,"(0.0, 0.0, 0.0, 0.0, 0.0, 0.0, 0.0, 0.0, 0.0)","$VNYMR,+016.353,+002.878,+001.537,+00.2448,+00.0158,+00.5044,+00.487,-00.285,-09.774,+00.001444,-00.000600,-00.000325*64
"
1678937275.5434184,2850,1678937275,502119541,imu1_frame,38554,1678937275,1678937275,imu1_frame,0.3083138595832839,-0.13962149113687697,-0.7048526348888233,0.6234028924314172,"(0.0, 0.0, 0.0, 0.0, 0.0, 0.0, 0.0, 0.0, 0.0)",0.000537,-0.001468,2e-05,"(0.0, 0.0, 0.0, 0.0, 0.0, 0.0, 0.0, 0.0, 0.0)",0.506,-0.244,-9.747,"(0.0, 0.0, 0.0, 0.0, 0.0, 0.0, 0.0, 0.0, 0.0)",38554,1678937275,1678937275,imu1_frame,0.2448,0.0119,0.5077,"(0.0, 0.0, 0.0, 0.0, 0.0, 0.0, 0.0, 0.0, 0.0)","$VNYMR,+016.354,+002.878,+001.537,+00.2448,+00.0119,+00.5077,+00.506,-00.244,-09.747,+00.000537,-00.001468,+00.000026*6C
"
1678937275.5434532,2851,1678937275,527358293,imu1_frame,38555,1678937275,1678937275,imu1_frame,0.3067426555242806,-0.13855331142244798,-0.7050665014210821,0.6241739755465794,"(0.0, 0.0, 0.0, 0.0, 0.0, 0.0, 0.0, 0.0, 0.0)",-7e-06,-0.000492,-0.00027,"(0.0, 0.0, 0.0, 0.0, 0.0, 0.0, 0.0, 0.0, 0.0)",0.485,-0.245,-9.743,"(0.0, 0.0, 0.0, 0.0, 0.0, 0.0, 0.0, 0.0, 0.0)",38555,1678937275,1678937275,imu1_frame,0.2439,0.0129,0.5066,"(0.0, 0.0, 0.0, 0.0, 0.0, 0.0, 0.0, 0.0, 0.0)","$VNYMR,+016.350,+002.879,+001.537,+00.2439,+00.0129,+00.5066,+00.485,-00.245,-09.743,-00.000007,-00.000492,-00.000273*63
"
1678937275.5873244,2852,1678937275,552198886,imu1_frame,38556,1678937275,1678937275,imu1_frame,0.30767857105108,-0.1396107549055337,-0.7048578783322192,0.6237131595402449,"(0.0, 0.0, 0.0, 0.0, 0.0, 0.0, 0.0, 0.0, 0.0)",0.000803,-0.001403,0.00092,"(0.0, 0.0, 0.0, 0.0, 0.0, 0.0, 0.0, 0.0, 0.0)",0.495,-0.231,-9.711,"(0.0, 0.0, 0.0, 0.0, 0.0, 0.0, 0.0, 0.0, 0.0)",38556,1678937275,1678937275,imu1_frame,0.2448,0.0139,0.5066,"(0.0, 0.0, 0.0, 0.0, 0.0, 0.0, 0.0, 0.0, 0.0)","$VNYMR,+016.353,+002.879,+001.537,+00.2448,+00.0139,+00.5066,+00.495,-00.231,-09.711,+00.000803,-00.001403,+00.000921*6B
"
1678937275.5873618,2853,1678937275,577243566,imu1_frame,38557,1678937275,1678937275,imu1_frame,0.30602520392607074,-0.13938984515820968,-0.7052501938451846,0.6241323655364354,"(0.0, 0.0, 0.0, 0.0, 0.0, 0.0, 0.0, 0.0, 0.0)",0.000498,0.0019,-0.00081,"(0.0, 0.0, 0.0, 0.0, 0.0, 0.0, 0.0, 0.0, 0.0)",0.495,-0.242,-9.757,"(0.0, 0.0, 0.0, 0.0, 0.0, 0.0, 0.0, 0.0, 0.0)",38557,1678937275,1678937275,imu1_frame,0.2429,0.0149,0.5077,"(0.0, 0.0, 0.0, 0.0, 0.0, 0.0, 0.0, 0.0, 0.0)","$VNYMR,+016.350,+002.881,+001.536,+00.2429,+00.0149,+00.5077,+00.495,-00.242,-09.757,+00.000498,+00.001900,-00.000814*6F
"
1678937275.6313841,2854,1678937275,602146148,imu1_frame,38558,1678937275,1678937275,imu1_frame,0.3057825798874481,-0.13888432872921658,-0.7050075698065625,0.6246378819654284,"(0.0, 0.0, 0.0, 0.0, 0.0, 0.0, 0.0, 0.0, 0.0)",0.000757,-0.001573,0.00021,"(0.0, 0.0, 0.0, 0.0, 0.0, 0.0, 0.0, 0.0, 0.0)",0.498,-0.264,-9.751,"(0.0, 0.0, 0.0, 0.0, 0.0, 0.0, 0.0, 0.0, 0.0)",38558,1678937275,1678937275,imu1_frame,0.2439,0.0187,0.5087,"(0.0, 0.0, 0.0, 0.0, 0.0, 0.0, 0.0, 0.0, 0.0)","$VNYMR,+016.349,+002.881,+001.537,+00.2439,+00.0187,+00.5087,+00.498,-00.264,-09.751,+00.000757,-00.001573,+00.000214*67
"
1678937275.6373148,2855,1678937275,627204179,imu1_frame,38559,1678937275,1678937275,imu1_frame,0.3064882055958661,-0.13874185388887328,-0.7046901057220635,0.6246819452389604,"(0.0, 0.0, 0.0, 0.0, 0.0, 0.0, 0.0, 0.0, 0.0)",0.00048,-0.003544,0.00028,"(0.0, 0.0, 0.0, 0.0, 0.0, 0.0, 0.0, 0.0, 0.0)",0.479,-0.279,-9.749,"(0.0, 0.0, 0.0, 0.0, 0.0, 0.0, 0.0, 0.0, 0.0)",38559,1678937275,1678937275,imu1_frame,0.2448,0.0119,0.5056,"(0.0, 0.0, 0.0, 0.0, 0.0, 0.0, 0.0, 0.0, 0.0)","$VNYMR,+016.350,+002.880,+001.538,+00.2448,+00.0119,+00.5056,+00.479,-00.279,-09.749,+00.000480,-00.003544,+00.000280*64
"
1678937275.67939,2856,1678937275,652625560,imu1_frame,38560,1678937275,1678937275,imu1_frame,0.3042771639459375,-0.13766377525081805,-0.7049074979531301,0.6257551532461937,"(0.0, 0.0, 0.0, 0.0, 0.0, 0.0, 0.0, 0.0, 0.0)",0.000563,-0.001053,0.00055,"(0.0, 0.0, 0.0, 0.0, 0.0, 0.0, 0.0, 0.0, 0.0)",0.519,-0.268,-9.746,"(0.0, 0.0, 0.0, 0.0, 0.0, 0.0, 0.0, 0.0, 0.0)",38560,1678937275,1678937275,imu1_frame,0.243,0.0206,0.5076,"(0.0, 0.0, 0.0, 0.0, 0.0, 0.0, 0.0, 0.0, 0.0)","$VNYMR,+016.345,+002.882,+001.538,+00.2430,+00.0206,+00.5076,+00.519,-00.268,-09.746,+00.000563,-00.001053,+00.000553*6E
"
1678937275.7234678,2857,1678937275,677275419,imu1_frame,38561,1678937275,1678937275,imu1_frame,0.3052382295620899,-0.1373321971334,-0.7049661798651106,0.6252936718780275,"(0.0, 0.0, 0.0, 0.0, 0.0, 0.0, 0.0, 0.0, 0.0)",0.000986,0.000181,-4e-05,"(0.0, 0.0, 0.0, 0.0, 0.0, 0.0, 0.0, 0.0, 0.0)",0.487,-0.265,-9.746,"(0.0, 0.0, 0.0, 0.0, 0.0, 0.0, 0.0, 0.0, 0.0)",38561,1678937275,1678937275,imu1_frame,0.2448,0.0167,0.5033,"(0.0, 0.0, 0.0, 0.0, 0.0, 0.0, 0.0, 0.0, 0.0)","$VNYMR,+016.346,+002.880,+001.538,+00.2448,+00.0167,+00.5033,+00.487,-00.265,-09.746,+00.000986,+00.000181,-00.000049*68
"
1678937275.7235107,2858,1678937275,702146291,imu1_frame,38562,1678937275,1678937275,imu1_frame,0.30505167637440767,-0.1373692387236274,-0.7042766662935219,0.6261529719710173,"(0.0, 0.0, 0.0, 0.0, 0.0, 0.0, 0.0, 0.0, 0.0)",-7e-06,0.000167,-0.00137,"(0.0, 0.0, 0.0, 0.0, 0.0, 0.0, 0.0, 0.0, 0.0)",0.477,-0.26,-9.756,"(0.0, 0.0, 0.0, 0.0, 0.0, 0.0, 0.0, 0.0, 0.0)",38562,1678937275,1678937275,imu1_frame,0.2458,0.0167,0.5077,"(0.0, 0.0, 0.0, 0.0, 0.0, 0.0, 0.0, 0.0, 0.0)","$VNYMR,+016.346,+002.881,+001.540,+00.2458,+00.0167,+00.5077,+00.477,-00.260,-09.756,-00.000007,+00.000167,-00.001379*63
"
1678937275.7673898,2859,1678937275,726977825,imu1_frame,38563,1678937275,1678937275,imu1_frame,0.3043570004839019,-0.13681708908613704,-0.7047268241615472,0.6261054253858673,"(0.0, 0.0, 0.0, 0.0, 0.0, 0.0, 0.0, 0.0, 0.0)",0.001012,0.003426,0.00033,"(0.0, 0.0, 0.0, 0.0, 0.0, 0.0, 0.0, 0.0, 0.0)",0.512,-0.244,-9.734,"(0.0, 0.0, 0.0, 0.0, 0.0, 0.0, 0.0, 0.0, 0.0)",38563,1678937275,1678937275,imu1_frame,0.2458,0.0158,0.5055,"(0.0, 0.0, 0.0, 0.0, 0.0, 0.0, 0.0, 0.0, 0.0)","$VNYMR,+016.344,+002.881,+001.539,+00.2458,+00.0158,+00.5055,+00.512,-00.244,-09.734,+00.001012,+00.003426,+00.000338*61
"
1678937275.7674313,2860,1678937275,752245426,imu1_frame,38564,1678937275,1678937275,imu1_frame,0.30499399631429946,-0.13682721700322825,-0.7047219466173206,0.6257986520081991,"(0.0, 0.0, 0.0, 0.0, 0.0, 0.0, 0.0, 0.0, 0.0)",0.001349,0.001511,-0.00089,"(0.0, 0.0, 0.0, 0.0, 0.0, 0.0, 0.0, 0.0, 0.0)",0.477,-0.247,-9.745,"(0.0, 0.0, 0.0, 0.0, 0.0, 0.0, 0.0, 0.0, 0.0)",38564,1678937275,1678937275,imu1_frame,0.2439,0.0129,0.5066,"(0.0, 0.0, 0.0, 0.0, 0.0, 0.0, 0.0, 0.0, 0.0)","$VNYMR,+016.345,+002.880,+001.539,+00.2439,+00.0129,+00.5066,+00.477,-00.247,-09.745,+00.001349,+00.001511,-00.000892*60
"
1678937275.8113887,2861,1678937275,777217626,imu1_frame,38565,1678937275,1678937275,imu1_frame,0.3047599566736846,-0.13562774788519683,-0.7046084594800289,0.6263013664690695,"(0.0, 0.0, 0.0, 0.0, 0.0, 0.0, 0.0, 0.0, 0.0)",0.000911,-0.000548,-0.00174,"(0.0, 0.0, 0.0, 0.0, 0.0, 0.0, 0.0, 0.0, 0.0)",0.462,-0.28,-9.731,"(0.0, 0.0, 0.0, 0.0, 0.0, 0.0, 0.0, 0.0, 0.0)",38565,1678937275,1678937275,imu1_frame,0.2439,0.011,0.5066,"(0.0, 0.0, 0.0, 0.0, 0.0, 0.0, 0.0, 0.0, 0.0)","$VNYMR,+016.343,+002.879,+001.540,+00.2439,+00.0110,+00.5066,+00.462,-00.280,-09.731,+00.000911,-00.000548,-00.001745*61
"
1678937275.812374,2862,1678937275,802091836,imu1_frame,38566,1678937275,1678937275,imu1_frame,0.30648199540302346,-0.13569322568793468,-0.7039051941948847,0.6262376646143586,"(0.0, 0.0, 0.0, 0.0, 0.0, 0.0, 0.0, 0.0, 0.0)",0.000454,-0.000991,0.00076,"(0.0, 0.0, 0.0, 0.0, 0.0, 0.0, 0.0, 0.0, 0.0)",0.465,-0.258,-9.728,"(0.0, 0.0, 0.0, 0.0, 0.0, 0.0, 0.0, 0.0, 0.0)",38566,1678937275,1678937275,imu1_frame,0.2448,0.0148,0.5066,"(0.0, 0.0, 0.0, 0.0, 0.0, 0.0, 0.0, 0.0, 0.0)","$VNYMR,+016.346,+002.877,+001.542,+00.2448,+00.0148,+00.5066,+00.465,-00.258,-09.728,+00.000454,-00.000991,+00.000760*6D
"
1678937275.8553488,2863,1678937275,827148914,imu1_frame,38567,1678937275,1678937275,imu1_frame,0.30718589530227824,-0.13554880880920273,-0.7035876968568608,0.6262808467368309,"(0.0, 0.0, 0.0, 0.0, 0.0, 0.0, 0.0, 0.0, 0.0)",0.000317,0.001767,0.00012,"(0.0, 0.0, 0.0, 0.0, 0.0, 0.0, 0.0, 0.0, 0.0)",0.466,-0.264,-9.766,"(0.0, 0.0, 0.0, 0.0, 0.0, 0.0, 0.0, 0.0, 0.0)",38567,1678937275,1678937275,imu1_frame,0.2439,0.0158,0.5055,"(0.0, 0.0, 0.0, 0.0, 0.0, 0.0, 0.0, 0.0, 0.0)","$VNYMR,+016.347,+002.876,+001.543,+00.2439,+00.0158,+00.5055,+00.466,-00.264,-09.766,+00.000317,+00.001767,+00.000123*6C
"
1678937275.899404,2864,1678937275,852684259,imu1_frame,38568,1678937275,1678937275,imu1_frame,0.30726294116148445,-0.13470037990281597,-0.7034053758532376,0.6266308082624064,"(0.0, 0.0, 0.0, 0.0, 0.0, 0.0, 0.0, 0.0, 0.0)",-0.000548,0.001603,-0.00151,"(0.0, 0.0, 0.0, 0.0, 0.0, 0.0, 0.0, 0.0, 0.0)",0.469,-0.264,-9.76,"(0.0, 0.0, 0.0, 0.0, 0.0, 0.0, 0.0, 0.0, 0.0)",38568,1678937275,1678937275,imu1_frame,0.2448,0.0158,0.5055,"(0.0, 0.0, 0.0, 0.0, 0.0, 0.0, 0.0, 0.0, 0.0)","$VNYMR,+016.346,+002.875,+001.544,+00.2448,+00.0158,+00.5055,+00.469,-00.264,-09.760,-00.000548,+00.001603,-00.001514*68
"
1678937275.8994467,2865,1678937275,877058267,imu1_frame,38569,1678937275,1678937275,imu1_frame,0.307339217070052,-0.1338517774506973,-0.7032221858633693,0.6269807530009207,"(0.0, 0.0, 0.0, 0.0, 0.0, 0.0, 0.0, 0.0, 0.0)",0.001128,-0.002774,0.00038,"(0.0, 0.0, 0.0, 0.0, 0.0, 0.0, 0.0, 0.0, 0.0)",0.489,-0.262,-9.749,"(0.0, 0.0, 0.0, 0.0, 0.0, 0.0, 0.0, 0.0, 0.0)",38569,1678937275,1678937275,imu1_frame,0.2458,0.0138,0.5034,"(0.0, 0.0, 0.0, 0.0, 0.0, 0.0, 0.0, 0.0, 0.0)","$VNYMR,+016.345,+002.874,+001.545,+00.2458,+00.0138,+00.5034,+00.489,-00.262,-09.749,+00.001128,-00.002774,+00.000386*63
"
1678937275.9433813,2866,1678937275,902092695,imu1_frame,38570,1678937275,1678937275,imu1_frame,0.30689203464899073,-0.13380710852799405,-0.7039158064417599,0.6264307417566822,"(0.0, 0.0, 0.0, 0.0, 0.0, 0.0, 0.0, 0.0, 0.0)",-0.000894,-0.002541,-0.00065,"(0.0, 0.0, 0.0, 0.0, 0.0, 0.0, 0.0, 0.0, 0.0)",0.485,-0.241,-9.759,"(0.0, 0.0, 0.0, 0.0, 0.0, 0.0, 0.0, 0.0, 0.0)",38570,1678937275,1678937275,imu1_frame,0.2476,0.0138,0.498,"(0.0, 0.0, 0.0, 0.0, 0.0, 0.0, 0.0, 0.0, 0.0)","$VNYMR,+016.344,+002.874,+001.543,+00.2476,+00.0138,+00.4980,+00.485,-00.241,-09.759,-00.000894,-00.002541,-00.000659*6F
"
1678937275.943428,2867,1678937275,927061796,imu1_frame,38571,1678937275,1678937275,imu1_frame,0.30607615786726455,-0.1328671212797376,-0.7051170461350276,0.625678563575469,"(0.0, 0.0, 0.0, 0.0, 0.0, 0.0, 0.0, 0.0, 0.0)",-0.000561,0.00034,-0.0009,"(0.0, 0.0, 0.0, 0.0, 0.0, 0.0, 0.0, 0.0, 0.0)",0.49,-0.234,-9.743,"(0.0, 0.0, 0.0, 0.0, 0.0, 0.0, 0.0, 0.0, 0.0)",38571,1678937275,1678937275,imu1_frame,0.2429,0.0168,0.5065,"(0.0, 0.0, 0.0, 0.0, 0.0, 0.0, 0.0, 0.0, 0.0)","$VNYMR,+016.341,+002.873,+001.540,+00.2429,+00.0168,+00.5065,+00.490,-00.234,-09.743,-00.000561,+00.000340,-00.000901*69
"
1678937275.987396,2868,1678937275,952704429,imu1_frame,38572,1678937275,1678937275,imu1_frame,0.30435693864900204,-0.13279935534377782,-0.7058189426852325,0.625740205886744,"(0.0, 0.0, 0.0, 0.0, 0.0, 0.0, 0.0, 0.0, 0.0)",-0.000137,0.000317,-0.0016,"(0.0, 0.0, 0.0, 0.0, 0.0, 0.0, 0.0, 0.0, 0.0)",0.49,-0.213,-9.729,"(0.0, 0.0, 0.0, 0.0, 0.0, 0.0, 0.0, 0.0, 0.0)",38572,1678937275,1678937275,imu1_frame,0.2467,0.0148,0.51,"(0.0, 0.0, 0.0, 0.0, 0.0, 0.0, 0.0, 0.0, 0.0)","$VNYMR,+016.338,+002.875,+001.538,+00.2467,+00.0148,+00.5100,+00.490,-00.213,-09.729,-00.000137,+00.000317,-00.001609*6E
"
1678937275.9880056,2869,1678937275,977767229,imu1_frame,38573,1678937275,1678937275,imu1_frame,0.30461490798561985,-0.13260920223890452,-0.7061929331051309,0.6252328354675928,"(0.0, 0.0, 0.0, 0.0, 0.0, 0.0, 0.0, 0.0, 0.0)",0.000782,-0.00213,-0.0004,"(0.0, 0.0, 0.0, 0.0, 0.0, 0.0, 0.0, 0.0, 0.0)",0.51,-0.216,-9.688,"(0.0, 0.0, 0.0, 0.0, 0.0, 0.0, 0.0, 0.0, 0.0)",38573,1678937275,1678937275,imu1_frame,0.2467,0.0138,0.5056,"(0.0, 0.0, 0.0, 0.0, 0.0, 0.0, 0.0, 0.0, 0.0)","$VNYMR,+016.338,+002.874,+001.537,+00.2467,+00.0138,+00.5056,+00.510,-00.216,-09.688,+00.000782,-00.002130,-00.000406*62
"
1678937276.0313604,2870,1678937276,2762794,imu1_frame,38574,1678937276,1678937276,imu1_frame,0.3048488689953729,-0.13381002349234744,-0.7063108730316039,0.6247295377381741,"(0.0, 0.0, 0.0, 0.0, 0.0, 0.0, 0.0, 0.0, 0.0)",0.001099,-0.000432,-0.00096,"(0.0, 0.0, 0.0, 0.0, 0.0, 0.0, 0.0, 0.0, 0.0)",0.514,-0.209,-9.695,"(0.0, 0.0, 0.0, 0.0, 0.0, 0.0, 0.0, 0.0, 0.0)",38574,1678937276,1678937276,imu1_frame,0.2448,0.0158,0.5099,"(0.0, 0.0, 0.0, 0.0, 0.0, 0.0, 0.0, 0.0, 0.0)","$VNYMR,+016.340,+002.875,+001.536,+00.2448,+00.0158,+00.5099,+00.514,-00.209,-09.695,+00.001099,-00.000432,-00.000964*63
"
1678937276.07536,2871,1678937276,27825832,imu1_frame,38575,1678937276,1678937276,imu1_frame,0.304457255082205,-0.13430432686828386,-0.7065615767389776,0.6245309166793875,"(0.0, 0.0, 0.0, 0.0, 0.0, 0.0, 0.0, 0.0, 0.0)",-1e-05,-0.002369,-0.00068,"(0.0, 0.0, 0.0, 0.0, 0.0, 0.0, 0.0, 0.0, 0.0)",0.511,-0.26,-9.715,"(0.0, 0.0, 0.0, 0.0, 0.0, 0.0, 0.0, 0.0, 0.0)",38575,1678937276,1678937276,imu1_frame,0.2467,0.0109,0.5078,"(0.0, 0.0, 0.0, 0.0, 0.0, 0.0, 0.0, 0.0, 0.0)","$VNYMR,+016.340,+002.876,+001.535,+00.2467,+00.0109,+00.5078,+00.511,-00.260,-09.715,-00.000010,-00.002369,-00.000683*6D
"
1678937276.0754075,2872,1678937276,52001237,imu1_frame,38576,1678937276,1678937276,imu1_frame,0.3048246795856633,-0.13520022591933054,-0.7060525491758608,0.6247340325523559,"(0.0, 0.0, 0.0, 0.0, 0.0, 0.0, 0.0, 0.0, 0.0)",0.001866,-0.002284,-0.0007,"(0.0, 0.0, 0.0, 0.0, 0.0, 0.0, 0.0, 0.0, 0.0)",0.536,-0.274,-9.75,"(0.0, 0.0, 0.0, 0.0, 0.0, 0.0, 0.0, 0.0, 0.0)",38576,1678937276,1678937276,imu1_frame,0.2467,0.0148,0.5089,"(0.0, 0.0, 0.0, 0.0, 0.0, 0.0, 0.0, 0.0, 0.0)","$VNYMR,+016.342,+002.877,+001.536,+00.2467,+00.0148,+00.5089,+00.536,-00.274,-09.750,+00.001866,-00.002284,-00.000700*61
"
1678937276.119451,2873,1678937276,77627420,imu1_frame,38577,1678937276,1678937276,imu1_frame,0.3055171760231541,-0.13575346913826114,-0.7056046932718375,0.6247817759862401,"(0.0, 0.0, 0.0, 0.0, 0.0, 0.0, 0.0, 0.0, 0.0)",0.001504,0.002249,-4e-05,"(0.0, 0.0, 0.0, 0.0, 0.0, 0.0, 0.0, 0.0, 0.0)",0.499,-0.239,-9.759,"(0.0, 0.0, 0.0, 0.0, 0.0, 0.0, 0.0, 0.0, 0.0)",38577,1678937276,1678937276,imu1_frame,0.2439,0.0148,0.5055,"(0.0, 0.0, 0.0, 0.0, 0.0, 0.0, 0.0, 0.0, 0.0)","$VNYMR,+016.344,+002.877,+001.537,+00.2439,+00.0148,+00.5055,+00.499,-00.239,-09.759,+00.001504,+00.002249,-00.000046*63
"
1678937276.119494,2874,1678937276,101902961,imu1_frame,38578,1678937276,1678937276,imu1_frame,0.3059654820255491,-0.1358003569701544,-0.7049117467359751,0.6253341636031798,"(0.0, 0.0, 0.0, 0.0, 0.0, 0.0, 0.0, 0.0, 0.0)",0.000902,-0.001782,-0.00153,"(0.0, 0.0, 0.0, 0.0, 0.0, 0.0, 0.0, 0.0, 0.0)",0.505,-0.292,-9.784,"(0.0, 0.0, 0.0, 0.0, 0.0, 0.0, 0.0, 0.0, 0.0)",38578,1678937276,1678937276,imu1_frame,0.2439,0.0139,0.5099,"(0.0, 0.0, 0.0, 0.0, 0.0, 0.0, 0.0, 0.0, 0.0)","$VNYMR,+016.345,+002.877,+001.539,+00.2439,+00.0139,+00.5099,+00.505,-00.292,-09.784,+00.000902,-00.001782,-00.001534*62
"
1678937276.1633537,2875,1678937276,126913309,imu1_frame,38579,1678937276,1678937276,imu1_frame,0.3073629430018272,-0.13620801669514887,-0.704145609818088,0.6254233427296604,"(0.0, 0.0, 0.0, 0.0, 0.0, 0.0, 0.0, 0.0, 0.0)",0.000942,0.001934,-0.00053,"(0.0, 0.0, 0.0, 0.0, 0.0, 0.0, 0.0, 0.0, 0.0)",0.492,-0.283,-9.75,"(0.0, 0.0, 0.0, 0.0, 0.0, 0.0, 0.0, 0.0, 0.0)",38579,1678937276,1678937276,imu1_frame,0.2429,0.0216,0.5065,"(0.0, 0.0, 0.0, 0.0, 0.0, 0.0, 0.0, 0.0, 0.0)","$VNYMR,+016.348,+002.876,+001.541,+00.2429,+00.0216,+00.5065,+00.492,-00.283,-09.750,+00.000942,+00.001934,-00.000538*67
"
1678937276.1633906,2876,1678937276,152695655,imu1_frame,38580,1678937276,1678937276,imu1_frame,0.3087699430422036,-0.13591825064816293,-0.7035112180995544,0.625507248097525,"(0.0, 0.0, 0.0, 0.0, 0.0, 0.0, 0.0, 0.0, 0.0)",0.000783,-0.001955,0.00038,"(0.0, 0.0, 0.0, 0.0, 0.0, 0.0, 0.0, 0.0, 0.0)",0.5,-0.307,-9.771,"(0.0, 0.0, 0.0, 0.0, 0.0, 0.0, 0.0, 0.0, 0.0)",38580,1678937276,1678937276,imu1_frame,0.2467,0.0148,0.5089,"(0.0, 0.0, 0.0, 0.0, 0.0, 0.0, 0.0, 0.0, 0.0)","$VNYMR,+016.350,+002.874,+001.543,+00.2467,+00.0148,+00.5089,+00.500,-00.307,-09.771,+00.000783,-00.001955,+00.000380*6B
"
1678937276.2073486,2877,1678937276,177765607,imu1_frame,38581,1678937276,1678937276,imu1_frame,0.3097763041621324,-0.13681849312826788,-0.7029939397549386,0.6253949647907235,"(0.0, 0.0, 0.0, 0.0, 0.0, 0.0, 0.0, 0.0, 0.0)",-0.000133,-0.001237,0.00019,"(0.0, 0.0, 0.0, 0.0, 0.0, 0.0, 0.0, 0.0, 0.0)",0.467,-0.267,-9.726,"(0.0, 0.0, 0.0, 0.0, 0.0, 0.0, 0.0, 0.0, 0.0)",38581,1678937276,1678937276,imu1_frame,0.2429,0.0101,0.5099,"(0.0, 0.0, 0.0, 0.0, 0.0, 0.0, 0.0, 0.0, 0.0)","$VNYMR,+016.353,+002.874,+001.544,+00.2429,+00.0101,+00.5099,+00.467,-00.267,-09.726,-00.000133,-00.001237,+00.000197*6C
"
1678937276.2126117,2878,1678937276,201951026,imu1_frame,38582,1678937276,1678937276,imu1_frame,0.31124998426018513,-0.1363687720387451,-0.7020476273701761,0.6258243637112457,"(0.0, 0.0, 0.0, 0.0, 0.0, 0.0, 0.0, 0.0, 0.0)",-5e-06,0.002017,-0.00083,"(0.0, 0.0, 0.0, 0.0, 0.0, 0.0, 0.0, 0.0, 0.0)",0.462,-0.287,-9.725,"(0.0, 0.0, 0.0, 0.0, 0.0, 0.0, 0.0, 0.0, 0.0)",38582,1678937276,1678937276,imu1_frame,0.2458,0.0244,0.5033,"(0.0, 0.0, 0.0, 0.0, 0.0, 0.0, 0.0, 0.0, 0.0)","$VNYMR,+016.355,+002.872,+001.547,+00.2458,+00.0244,+00.5033,+00.462,-00.287,-09.725,-00.000005,+00.002017,-00.000837*67
"
1678937276.2553759,2879,1678937276,227752447,imu1_frame,38583,1678937276,1678937276,imu1_frame,0.3118156886615274,-0.13653223992012037,-0.7023565691810831,0.6251601182857961,"(0.0, 0.0, 0.0, 0.0, 0.0, 0.0, 0.0, 0.0, 0.0)",-0.000681,-0.000184,-0.00165,"(0.0, 0.0, 0.0, 0.0, 0.0, 0.0, 0.0, 0.0, 0.0)",0.479,-0.247,-9.729,"(0.0, 0.0, 0.0, 0.0, 0.0, 0.0, 0.0, 0.0, 0.0)",38583,1678937276,1678937276,imu1_frame,0.2439,0.0177,0.5033,"(0.0, 0.0, 0.0, 0.0, 0.0, 0.0, 0.0, 0.0, 0.0)","$VNYMR,+016.356,+002.871,+001.546,+00.2439,+00.0177,+00.5033,+00.479,-00.247,-09.729,-00.000681,-00.000184,-00.001650*63
"
1678937276.2993984,2880,1678937276,252678871,imu1_frame,38584,1678937276,1678937276,imu1_frame,0.3121196204320417,-0.1375777666709928,-0.7021548751345095,0.625005785560439,"(0.0, 0.0, 0.0, 0.0, 0.0, 0.0, 0.0, 0.0, 0.0)",0.000186,0.001541,-0.00056,"(0.0, 0.0, 0.0, 0.0, 0.0, 0.0, 0.0, 0.0, 0.0)",0.479,-0.241,-9.745,"(0.0, 0.0, 0.0, 0.0, 0.0, 0.0, 0.0, 0.0, 0.0)",38584,1678937276,1678937276,imu1_frame,0.2439,0.0177,0.5066,"(0.0, 0.0, 0.0, 0.0, 0.0, 0.0, 0.0, 0.0, 0.0)","$VNYMR,+016.358,+002.872,+001.546,+00.2439,+00.0177,+00.5066,+00.479,-00.241,-09.745,+00.000186,+00.001541,-00.000561*6E
"
1678937276.29942,2881,1678937276,277659893,imu1_frame,38585,1678937276,1678937276,imu1_frame,0.3120597490169472,-0.13703944812148594,-0.7026006295365038,0.62465291008443,"(0.0, 0.0, 0.0, 0.0, 0.0, 0.0, 0.0, 0.0, 0.0)",0.000299,-0.001449,-0.00096,"(0.0, 0.0, 0.0, 0.0, 0.0, 0.0, 0.0, 0.0, 0.0)",0.466,-0.218,-9.724,"(0.0, 0.0, 0.0, 0.0, 0.0, 0.0, 0.0, 0.0, 0.0)",38585,1678937276,1678937276,imu1_frame,0.242,0.0139,0.5076,"(0.0, 0.0, 0.0, 0.0, 0.0, 0.0, 0.0, 0.0, 0.0)","$VNYMR,+016.357,+002.871,+001.545,+00.2420,+00.0139,+00.5076,+00.466,-00.218,-09.724,+00.000299,-00.001449,-00.000961*69
"
1678937276.343297,2882,1678937276,301692485,imu1_frame,38586,1678937276,1678937276,imu1_frame,0.31200980294434427,-0.13580634939848027,-0.703177461581301,0.6242979864245659,"(0.0, 0.0, 0.0, 0.0, 0.0, 0.0, 0.0, 0.0, 0.0)",0.00083,-0.001756,-0.00011,"(0.0, 0.0, 0.0, 0.0, 0.0, 0.0, 0.0, 0.0, 0.0)",0.487,-0.203,-9.756,"(0.0, 0.0, 0.0, 0.0, 0.0, 0.0, 0.0, 0.0, 0.0)",38586,1678937276,1678937276,imu1_frame,0.2448,0.0139,0.5099,"(0.0, 0.0, 0.0, 0.0, 0.0, 0.0, 0.0, 0.0, 0.0)","$VNYMR,+016.355,+002.869,+001.544,+00.2448,+00.0139,+00.5099,+00.487,-00.203,-09.756,+00.000830,-00.001756,-00.000118*6E
"
1678937276.3433354,2883,1678937276,327681541,imu1_frame,38587,1678937276,1678937276,imu1_frame,0.31281888202955843,-0.13647929366537342,-0.7037287336299088,0.6231240798669417,"(0.0, 0.0, 0.0, 0.0, 0.0, 0.0, 0.0, 0.0, 0.0)",0.000265,-0.000169,-0.00035,"(0.0, 0.0, 0.0, 0.0, 0.0, 0.0, 0.0, 0.0, 0.0)",0.485,-0.23,-9.758,"(0.0, 0.0, 0.0, 0.0, 0.0, 0.0, 0.0, 0.0, 0.0)",38587,1678937276,1678937276,imu1_frame,0.2458,0.0148,0.5132,"(0.0, 0.0, 0.0, 0.0, 0.0, 0.0, 0.0, 0.0, 0.0)","$VNYMR,+016.357,+002.868,+001.542,+00.2458,+00.0148,+00.5132,+00.485,-00.230,-09.758,+00.000265,-00.000169,-00.000355*6A
"
1678937276.391385,2884,1678937276,352671861,imu1_frame,38588,1678937276,1678937276,imu1_frame,0.3118938499504166,-0.1347286726914158,-0.7040632189136108,0.6235907270725901,"(0.0, 0.0, 0.0, 0.0, 0.0, 0.0, 0.0, 0.0, 0.0)",-0.000155,-0.002374,-0.00051,"(0.0, 0.0, 0.0, 0.0, 0.0, 0.0, 0.0, 0.0, 0.0)",0.492,-0.212,-9.764,"(0.0, 0.0, 0.0, 0.0, 0.0, 0.0, 0.0, 0.0, 0.0)",38588,1678937276,1678937276,imu1_frame,0.2467,0.0138,0.5111,"(0.0, 0.0, 0.0, 0.0, 0.0, 0.0, 0.0, 0.0, 0.0)","$VNYMR,+016.353,+002.867,+001.542,+00.2467,+00.0138,+00.5111,+00.492,-00.212,-09.764,-00.000155,-00.002374,-00.000513*6C
"
1678937276.3914287,2885,1678937276,377640962,imu1_frame,38589,1678937276,1678937276,imu1_frame,0.3105689896562588,-0.13417071345127105,-0.704514119373665,0.6238629480254592,"(0.0, 0.0, 0.0, 0.0, 0.0, 0.0, 0.0, 0.0, 0.0)",0.000298,0.000746,-0.00316,"(0.0, 0.0, 0.0, 0.0, 0.0, 0.0, 0.0, 0.0, 0.0)",0.506,-0.225,-9.805,"(0.0, 0.0, 0.0, 0.0, 0.0, 0.0, 0.0, 0.0, 0.0)",38589,1678937276,1678937276,imu1_frame,0.2448,0.011,0.5099,"(0.0, 0.0, 0.0, 0.0, 0.0, 0.0, 0.0, 0.0, 0.0)","$VNYMR,+016.350,+002.868,+001.541,+00.2448,+00.0110,+00.5099,+00.506,-00.225,-09.805,+00.000298,+00.000746,-00.003164*67
"
1678937276.435319,2886,1678937276,402545690,imu1_frame,38590,1678937276,1678937276,imu1_frame,0.3104125657868993,-0.1358710633915892,-0.7048772145890185,0.6231622625670298,"(0.0, 0.0, 0.0, 0.0, 0.0, 0.0, 0.0, 0.0, 0.0)",0.000817,0.000596,-0.00061,"(0.0, 0.0, 0.0, 0.0, 0.0, 0.0, 0.0, 0.0, 0.0)",0.485,-0.23,-9.755,"(0.0, 0.0, 0.0, 0.0, 0.0, 0.0, 0.0, 0.0, 0.0)",38590,1678937276,1678937276,imu1_frame,0.2429,0.0139,0.5033,"(0.0, 0.0, 0.0, 0.0, 0.0, 0.0, 0.0, 0.0, 0.0)","$VNYMR,+016.352,+002.870,+001.539,+00.2429,+00.0139,+00.5033,+00.485,-00.230,-09.755,+00.000817,+00.000596,-00.000610*6E
"
1678937276.4375641,2887,1678937276,427581548,imu1_frame,38591,1678937276,1678937276,imu1_frame,0.31039047621825144,-0.1372603878692722,-0.704614020043862,0.62316644722948,"(0.0, 0.0, 0.0, 0.0, 0.0, 0.0, 0.0, 0.0, 0.0)",0.000454,-0.000146,0.00035,"(0.0, 0.0, 0.0, 0.0, 0.0, 0.0, 0.0, 0.0, 0.0)",0.514,-0.224,-9.745,"(0.0, 0.0, 0.0, 0.0, 0.0, 0.0, 0.0, 0.0, 0.0)",38591,1678937276,1678937276,imu1_frame,0.2458,0.0234,0.5,"(0.0, 0.0, 0.0, 0.0, 0.0, 0.0, 0.0, 0.0, 0.0)","$VNYMR,+016.354,+002.872,+001.539,+00.2458,+00.0234,+00.5000,+00.514,-00.224,-09.745,+00.000454,-00.000146,+00.000356*6A
"
1678937276.4832754,2888,1678937276,452576160,imu1_frame,38592,1678937276,1678937276,imu1_frame,0.31074940342414326,-0.13884598251794514,-0.7039670390169502,0.6233674754010456,"(0.0, 0.0, 0.0, 0.0, 0.0, 0.0, 0.0, 0.0, 0.0)",0.001479,0.001298,-0.00119,"(0.0, 0.0, 0.0, 0.0, 0.0, 0.0, 0.0, 0.0, 0.0)",0.471,-0.257,-9.727,"(0.0, 0.0, 0.0, 0.0, 0.0, 0.0, 0.0, 0.0, 0.0)",38592,1678937276,1678937276,imu1_frame,0.2467,0.0196,0.5088,"(0.0, 0.0, 0.0, 0.0, 0.0, 0.0, 0.0, 0.0, 0.0)","$VNYMR,+016.357,+002.874,+001.540,+00.2467,+00.0196,+00.5088,+00.471,-00.257,-09.727,+00.001479,+00.001298,-00.001193*61
"
1678937276.483286,2889,1678937276,477505683,imu1_frame,38593,1678937276,1678937276,imu1_frame,0.310486204657056,-0.13972702747789637,-0.7034557707704902,0.6238787166425406,"(0.0, 0.0, 0.0, 0.0, 0.0, 0.0, 0.0, 0.0, 0.0)",0.000267,-0.000939,0.00018,"(0.0, 0.0, 0.0, 0.0, 0.0, 0.0, 0.0, 0.0, 0.0)",0.487,-0.261,-9.737,"(0.0, 0.0, 0.0, 0.0, 0.0, 0.0, 0.0, 0.0, 0.0)",38593,1678937276,1678937276,imu1_frame,0.2439,0.0129,0.5088,"(0.0, 0.0, 0.0, 0.0, 0.0, 0.0, 0.0, 0.0, 0.0)","$VNYMR,+016.358,+002.876,+001.541,+00.2439,+00.0129,+00.5088,+00.487,-00.261,-09.737,+00.000267,-00.000939,+00.000183*66
"
1678937276.5272515,2890,1678937276,502495765,imu1_frame,38594,1678937276,1678937276,imu1_frame,0.31068614756463997,-0.13995509460440048,-0.7023837407772769,0.6249350125392521,"(0.0, 0.0, 0.0, 0.0, 0.0, 0.0, 0.0, 0.0, 0.0)",0.000601,-0.0021,-0.00187,"(0.0, 0.0, 0.0, 0.0, 0.0, 0.0, 0.0, 0.0, 0.0)",0.501,-0.29,-9.749,"(0.0, 0.0, 0.0, 0.0, 0.0, 0.0, 0.0, 0.0, 0.0)",38594,1678937276,1678937276,imu1_frame,0.2458,0.0129,0.5132,"(0.0, 0.0, 0.0, 0.0, 0.0, 0.0, 0.0, 0.0, 0.0)","$VNYMR,+016.359,+002.877,+001.544,+00.2458,+00.0129,+00.5132,+00.501,-00.290,-09.749,+00.000601,-00.002100,-00.001874*6E
"
1678937276.530801,2891,1678937276,527405738,imu1_frame,38595,1678937276,1678937276,imu1_frame,0.31152156293849087,-0.1401902837954348,-0.7013057088208287,0.6256766760308636,"(0.0, 0.0, 0.0, 0.0, 0.0, 0.0, 0.0, 0.0, 0.0)",-0.000225,0.000752,0.00014,"(0.0, 0.0, 0.0, 0.0, 0.0, 0.0, 0.0, 0.0, 0.0)",0.506,-0.297,-9.736,"(0.0, 0.0, 0.0, 0.0, 0.0, 0.0, 0.0, 0.0, 0.0)",38595,1678937276,1678937276,imu1_frame,0.2429,0.0129,0.5088,"(0.0, 0.0, 0.0, 0.0, 0.0, 0.0, 0.0, 0.0, 0.0)","$VNYMR,+016.361,+002.877,+001.547,+00.2429,+00.0129,+00.5088,+00.506,-00.297,-09.736,-00.000225,+00.000752,+00.000149*69
"
1678937276.5712237,2892,1678937276,552485466,imu1_frame,38596,1678937276,1678937276,imu1_frame,0.3132341241720678,-0.14093645615626707,-0.7004656486782377,0.6255950557685425,"(0.0, 0.0, 0.0, 0.0, 0.0, 0.0, 0.0, 0.0, 0.0)",0.00068,-0.001031,-0.00113,"(0.0, 0.0, 0.0, 0.0, 0.0, 0.0, 0.0, 0.0, 0.0)",0.502,-0.29,-9.769,"(0.0, 0.0, 0.0, 0.0, 0.0, 0.0, 0.0, 0.0, 0.0)",38596,1678937276,1678937276,imu1_frame,0.2439,0.0148,0.5099,"(0.0, 0.0, 0.0, 0.0, 0.0, 0.0, 0.0, 0.0, 0.0)","$VNYMR,+016.365,+002.876,+001.549,+00.2439,+00.0148,+00.5099,+00.502,-00.290,-09.769,+00.000680,-00.001031,-00.001131*6D
"
1678937276.6151824,2893,1678937276,577368974,imu1_frame,38597,1678937276,1678937276,imu1_frame,0.3133117660588723,-0.14008618399260675,-0.7002899238414136,0.625943784112956,"(0.0, 0.0, 0.0, 0.0, 0.0, 0.0, 0.0, 0.0, 0.0)",-0.000183,0.000366,-0.00095,"(0.0, 0.0, 0.0, 0.0, 0.0, 0.0, 0.0, 0.0, 0.0)",0.484,-0.279,-9.75,"(0.0, 0.0, 0.0, 0.0, 0.0, 0.0, 0.0, 0.0, 0.0)",38597,1678937276,1678937276,imu1_frame,0.2429,0.012,0.5077,"(0.0, 0.0, 0.0, 0.0, 0.0, 0.0, 0.0, 0.0, 0.0)","$VNYMR,+016.364,+002.875,+001.550,+00.2429,+00.0120,+00.5077,+00.484,-00.279,-09.750,-00.000183,+00.000366,-00.000957*67
"
1678937276.6151946,2894,1678937276,602401256,imu1_frame,38598,1678937276,1678937276,imu1_frame,0.3121285563540724,-0.13852927795085362,-0.700255323307535,0.6269193613521578,"(0.0, 0.0, 0.0, 0.0, 0.0, 0.0, 0.0, 0.0, 0.0)",0.00051,-0.001817,1e-05,"(0.0, 0.0, 0.0, 0.0, 0.0, 0.0, 0.0, 0.0, 0.0)",0.487,-0.276,-9.773,"(0.0, 0.0, 0.0, 0.0, 0.0, 0.0, 0.0, 0.0, 0.0)",38598,1678937276,1678937276,imu1_frame,0.2429,0.0129,0.5088,"(0.0, 0.0, 0.0, 0.0, 0.0, 0.0, 0.0, 0.0, 0.0)","$VNYMR,+016.360,+002.875,+001.551,+00.2429,+00.0129,+00.5088,+00.487,-00.276,-09.773,+00.000510,-00.001817,+00.000010*68
"
1678937276.6592624,2895,1678937276,627340316,imu1_frame,38599,1678937276,1678937276,imu1_frame,0.31000043130977106,-0.1359225576133442,-0.7004217941674832,0.6283582586190833,"(0.0, 0.0, 0.0, 0.0, 0.0, 0.0, 0.0, 0.0, 0.0)",-0.000627,-0.001281,-0.00103,"(0.0, 0.0, 0.0, 0.0, 0.0, 0.0, 0.0, 0.0, 0.0)",0.489,-0.253,-9.735,"(0.0, 0.0, 0.0, 0.0, 0.0, 0.0, 0.0, 0.0, 0.0)",38599,1678937276,1678937276,imu1_frame,0.2458,0.0138,0.5056,"(0.0, 0.0, 0.0, 0.0, 0.0, 0.0, 0.0, 0.0, 0.0)","$VNYMR,+016.353,+002.875,+001.552,+00.2458,+00.0138,+00.5056,+00.489,-00.253,-09.735,-00.000627,-00.001281,-00.001038*6C
"
1678937276.6592767,2896,1678937276,652420043,imu1_frame,38600,1678937276,1678937276,imu1_frame,0.30993930595988745,-0.13538302293480703,-0.7008685351308632,0.6280066561634956,"(0.0, 0.0, 0.0, 0.0, 0.0, 0.0, 0.0, 0.0, 0.0)",0.000716,0.000873,-0.00085,"(0.0, 0.0, 0.0, 0.0, 0.0, 0.0, 0.0, 0.0, 0.0)",0.475,-0.241,-9.77,"(0.0, 0.0, 0.0, 0.0, 0.0, 0.0, 0.0, 0.0, 0.0)",38600,1678937276,1678937276,imu1_frame,0.2448,0.0119,0.5132,"(0.0, 0.0, 0.0, 0.0, 0.0, 0.0, 0.0, 0.0, 0.0)","$VNYMR,+016.352,+002.874,+001.551,+00.2448,+00.0119,+00.5132,+00.475,-00.241,-09.770,+00.000716,+00.000873,-00.000857*6A
"
1678937276.7032912,2897,1678937276,677436113,imu1_frame,38601,1678937276,1678937276,imu1_frame,0.30979619879938763,-0.13638740517308504,-0.7013635432275895,0.627306919418911,"(0.0, 0.0, 0.0, 0.0, 0.0, 0.0, 0.0, 0.0, 0.0)",0.000482,-0.001247,-0.00097,"(0.0, 0.0, 0.0, 0.0, 0.0, 0.0, 0.0, 0.0, 0.0)",0.492,-0.228,-9.722,"(0.0, 0.0, 0.0, 0.0, 0.0, 0.0, 0.0, 0.0, 0.0)",38601,1678937276,1678937276,imu1_frame,0.2448,0.0139,0.5099,"(0.0, 0.0, 0.0, 0.0, 0.0, 0.0, 0.0, 0.0, 0.0)","$VNYMR,+016.353,+002.875,+001.549,+00.2448,+00.0139,+00.5099,+00.492,-00.228,-09.722,+00.000482,-00.001247,-00.000972*62
"
1678937276.7062871,2898,1678937276,702333211,imu1_frame,38602,1678937276,1678937276,imu1_frame,0.31061573989040486,-0.13636122533947648,-0.7020513458551184,0.6261368749237421,"(0.0, 0.0, 0.0, 0.0, 0.0, 0.0, 0.0, 0.0, 0.0)",-0.000276,-0.000534,-0.00036,"(0.0, 0.0, 0.0, 0.0, 0.0, 0.0, 0.0, 0.0, 0.0)",0.483,-0.237,-9.728,"(0.0, 0.0, 0.0, 0.0, 0.0, 0.0, 0.0, 0.0, 0.0)",38602,1678937276,1678937276,imu1_frame,0.2439,0.0148,0.5099,"(0.0, 0.0, 0.0, 0.0, 0.0, 0.0, 0.0, 0.0, 0.0)","$VNYMR,+016.354,+002.873,+001.547,+00.2439,+00.0148,+00.5099,+00.483,-00.237,-09.728,-00.000276,-00.000534,-00.000365*6C
"
1678937276.7474625,2899,1678937276,727433919,imu1_frame,38603,1678937276,1678937276,imu1_frame,0.3107233514190275,-0.13717847313072556,-0.7029212596391341,0.6249278103427495,"(0.0, 0.0, 0.0, 0.0, 0.0, 0.0, 0.0, 0.0, 0.0)",-0.000121,-0.00034,0.00112,"(0.0, 0.0, 0.0, 0.0, 0.0, 0.0, 0.0, 0.0, 0.0)",0.485,-0.229,-9.707,"(0.0, 0.0, 0.0, 0.0, 0.0, 0.0, 0.0, 0.0, 0.0)",38603,1678937276,1678937276,imu1_frame,0.2439,0.01,0.5077,"(0.0, 0.0, 0.0, 0.0, 0.0, 0.0, 0.0, 0.0, 0.0)","$VNYMR,+016.355,+002.873,+001.544,+00.2439,+00.0100,+00.5077,+00.485,-00.229,-09.707,-00.000121,-00.000340,+00.001126*60
"
1678937276.7914424,2900,1678937276,753001689,imu1_frame,38604,1678937276,1678937276,imu1_frame,0.31058601760709703,-0.1374891278411265,-0.7035458358847215,0.6242245767363847,"(0.0, 0.0, 0.0, 0.0, 0.0, 0.0, 0.0, 0.0, 0.0)",0.001105,-0.001558,-0.00095,"(0.0, 0.0, 0.0, 0.0, 0.0, 0.0, 0.0, 0.0, 0.0)",0.48,-0.224,-9.725,"(0.0, 0.0, 0.0, 0.0, 0.0, 0.0, 0.0, 0.0, 0.0)",38604,1678937276,1678937276,imu1_frame,0.2477,0.0167,0.5111,"(0.0, 0.0, 0.0, 0.0, 0.0, 0.0, 0.0, 0.0, 0.0)","$VNYMR,+016.355,+002.873,+001.542,+00.2477,+00.0167,+00.5111,+00.480,-00.224,-09.725,+00.001105,-00.001558,-00.000951*64
"
1678937276.7914827,2901,1678937276,777559518,imu1_frame,38605,1678937276,1678937276,imu1_frame,0.3115320017622483,-0.13785001133891228,-0.703472494499865,0.6237560706991201,"(0.0, 0.0, 0.0, 0.0, 0.0, 0.0, 0.0, 0.0, 0.0)",0.00031,-0.000463,-0.00175,"(0.0, 0.0, 0.0, 0.0, 0.0, 0.0, 0.0, 0.0, 0.0)",0.499,-0.243,-9.736,"(0.0, 0.0, 0.0, 0.0, 0.0, 0.0, 0.0, 0.0, 0.0)",38605,1678937276,1678937276,imu1_frame,0.2429,0.0149,0.5098,"(0.0, 0.0, 0.0, 0.0, 0.0, 0.0, 0.0, 0.0, 0.0)","$VNYMR,+016.357,+002.872,+001.542,+00.2429,+00.0149,+00.5098,+00.499,-00.243,-09.736,+00.000310,-00.000463,-00.001756*6C
"
1678937276.835315,2902,1678937276,802489280,imu1_frame,38606,1678937276,1678937276,imu1_frame,0.31120009070013893,-0.13888681807161044,-0.7032739641650548,0.6239156085896055,"(0.0, 0.0, 0.0, 0.0, 0.0, 0.0, 0.0, 0.0, 0.0)",0.001129,0.000895,-0.00109,"(0.0, 0.0, 0.0, 0.0, 0.0, 0.0, 0.0, 0.0, 0.0)",0.505,-0.244,-9.73,"(0.0, 0.0, 0.0, 0.0, 0.0, 0.0, 0.0, 0.0, 0.0)",38606,1678937276,1678937276,imu1_frame,0.2439,0.0139,0.5153,"(0.0, 0.0, 0.0, 0.0, 0.0, 0.0, 0.0, 0.0, 0.0)","$VNYMR,+016.358,+002.874,+001.542,+00.2439,+00.0139,+00.5153,+00.505,-00.244,-09.730,+00.001129,+00.000895,-00.001093*64
"
1678937276.835815,2903,1678937276,827452421,imu1_frame,38607,1678937276,1678937276,imu1_frame,0.3118438408431039,-0.1382017303402559,-0.7034034815630074,0.6236002267352219,"(0.0, 0.0, 0.0, 0.0, 0.0, 0.0, 0.0, 0.0, 0.0)",0.000406,-0.002576,0.00048,"(0.0, 0.0, 0.0, 0.0, 0.0, 0.0, 0.0, 0.0, 0.0)",0.491,-0.272,-9.734,"(0.0, 0.0, 0.0, 0.0, 0.0, 0.0, 0.0, 0.0, 0.0)",38607,1678937276,1678937276,imu1_frame,0.2458,0.0177,0.5099,"(0.0, 0.0, 0.0, 0.0, 0.0, 0.0, 0.0, 0.0, 0.0)","$VNYMR,+016.358,+002.872,+001.542,+00.2458,+00.0177,+00.5099,+00.491,-00.272,-09.734,+00.000406,-00.002576,+00.000485*6C
"
1678937276.8794801,2904,1678937276,852940797,imu1_frame,38608,1678937276,1678937276,imu1_frame,0.3119818866285032,-0.13788981745052734,-0.7027795297384941,0.6243033182994636,"(0.0, 0.0, 0.0, 0.0, 0.0, 0.0, 0.0, 0.0, 0.0)",0.000508,0.000799,-3e-05,"(0.0, 0.0, 0.0, 0.0, 0.0, 0.0, 0.0, 0.0, 0.0)",0.49,-0.261,-9.752,"(0.0, 0.0, 0.0, 0.0, 0.0, 0.0, 0.0, 0.0, 0.0)",38608,1678937276,1678937276,imu1_frame,0.2467,0.0129,0.5122,"(0.0, 0.0, 0.0, 0.0, 0.0, 0.0, 0.0, 0.0, 0.0)","$VNYMR,+016.358,+002.872,+001.544,+00.2467,+00.0129,+00.5122,+00.490,-00.261,-09.752,+00.000508,+00.000799,-00.000039*62
"
1678937276.9234965,2905,1678937276,877530097,imu1_frame,38609,1678937276,1678937276,imu1_frame,0.3117984700663916,-0.13792097084141747,-0.7020898889446407,0.625163424800364,"(0.0, 0.0, 0.0, 0.0, 0.0, 0.0, 0.0, 0.0, 0.0)",0.001302,-0.000543,0.00015,"(0.0, 0.0, 0.0, 0.0, 0.0, 0.0, 0.0, 0.0, 0.0)",0.485,-0.273,-9.734,"(0.0, 0.0, 0.0, 0.0, 0.0, 0.0, 0.0, 0.0, 0.0)",38609,1678937276,1678937276,imu1_frame,0.2458,0.0129,0.5089,"(0.0, 0.0, 0.0, 0.0, 0.0, 0.0, 0.0, 0.0, 0.0)","$VNYMR,+016.358,+002.873,+001.546,+00.2458,+00.0129,+00.5089,+00.485,-00.273,-09.734,+00.001302,-00.000543,+00.000155*69
"
1678937276.9235425,2906,1678937276,902538776,imu1_frame,38610,1678937276,1678937276,imu1_frame,0.31074437731845633,-0.1367449857354075,-0.701291862799634,0.6268400625456285,"(0.0, 0.0, 0.0, 0.0, 0.0, 0.0, 0.0, 0.0, 0.0)",0.001225,0.001886,-0.00051,"(0.0, 0.0, 0.0, 0.0, 0.0, 0.0, 0.0, 0.0, 0.0)",0.495,-0.274,-9.777,"(0.0, 0.0, 0.0, 0.0, 0.0, 0.0, 0.0, 0.0, 0.0)",38610,1678937276,1678937276,imu1_frame,0.2458,0.0167,0.511,"(0.0, 0.0, 0.0, 0.0, 0.0, 0.0, 0.0, 0.0, 0.0)","$VNYMR,+016.355,+002.874,+001.549,+00.2458,+00.0167,+00.5110,+00.495,-00.274,-09.777,+00.001225,+00.001886,-00.000514*66
"
1678937276.967405,2907,1678937276,927659273,imu1_frame,38611,1678937276,1678937276,imu1_frame,0.3098499140622802,-0.13762111909596964,-0.7007824214464754,0.6276603031305906,"(0.0, 0.0, 0.0, 0.0, 0.0, 0.0, 0.0, 0.0, 0.0)",0.001542,0.001234,0.00044,"(0.0, 0.0, 0.0, 0.0, 0.0, 0.0, 0.0, 0.0, 0.0)",0.515,-0.276,-9.762,"(0.0, 0.0, 0.0, 0.0, 0.0, 0.0, 0.0, 0.0, 0.0)",38611,1678937276,1678937276,imu1_frame,0.2448,0.0158,0.5077,"(0.0, 0.0, 0.0, 0.0, 0.0, 0.0, 0.0, 0.0, 0.0)","$VNYMR,+016.355,+002.877,+001.550,+00.2448,+00.0158,+00.5077,+00.515,-00.276,-09.762,+00.001542,+00.001234,+00.000447*6B
"
1678937276.96745,2908,1678937276,952442646,imu1_frame,38612,1678937276,1678937276,imu1_frame,0.3092973937768712,-0.13607125492192862,-0.7007389634813351,0.6283189005957966,"(0.0, 0.0, 0.0, 0.0, 0.0, 0.0, 0.0, 0.0, 0.0)",0.001391,-0.001505,-0.0013,"(0.0, 0.0, 0.0, 0.0, 0.0, 0.0, 0.0, 0.0, 0.0)",0.463,-0.263,-9.764,"(0.0, 0.0, 0.0, 0.0, 0.0, 0.0, 0.0, 0.0, 0.0)",38612,1678937276,1678937276,imu1_frame,0.2439,0.01,0.5132,"(0.0, 0.0, 0.0, 0.0, 0.0, 0.0, 0.0, 0.0, 0.0)","$VNYMR,+016.352,+002.876,+001.551,+00.2439,+00.0100,+00.5132,+00.463,-00.263,-09.764,+00.001391,-00.001505,-00.001300*6D
"
1678937277.0113935,2909,1678937276,977445840,imu1_frame,38613,1678937276,1678937276,imu1_frame,0.3096183885706771,-0.13572715589426199,-0.7008038369065769,0.6281628569000016,"(0.0, 0.0, 0.0, 0.0, 0.0, 0.0, 0.0, 0.0, 0.0)",-0.000526,-0.000831,-8e-05,"(0.0, 0.0, 0.0, 0.0, 0.0, 0.0, 0.0, 0.0, 0.0)",0.512,-0.262,-9.74,"(0.0, 0.0, 0.0, 0.0, 0.0, 0.0, 0.0, 0.0, 0.0)",38613,1678937276,1678937276,imu1_frame,0.2429,0.0149,0.5098,"(0.0, 0.0, 0.0, 0.0, 0.0, 0.0, 0.0, 0.0, 0.0)","$VNYMR,+016.352,+002.875,+001.551,+00.2429,+00.0149,+00.5098,+00.512,-00.262,-09.740,-00.000526,-00.000831,-00.000081*6E
"
1678937277.012463,2910,1678937277,2350091,imu1_frame,38614,1678937277,1678937277,imu1_frame,0.3083476924881048,-0.13571457792603603,-0.7008099798316237,0.628783449244665,"(0.0, 0.0, 0.0, 0.0, 0.0, 0.0, 0.0, 0.0, 0.0)",-0.000677,-0.001477,-0.00111,"(0.0, 0.0, 0.0, 0.0, 0.0, 0.0, 0.0, 0.0, 0.0)",0.485,-0.265,-9.712,"(0.0, 0.0, 0.0, 0.0, 0.0, 0.0, 0.0, 0.0, 0.0)",38614,1678937277,1678937277,imu1_frame,0.2429,0.0129,0.511,"(0.0, 0.0, 0.0, 0.0, 0.0, 0.0, 0.0, 0.0, 0.0)","$VNYMR,+016.350,+002.877,+001.551,+00.2429,+00.0129,+00.5110,+00.485,-00.265,-09.712,-00.000677,-00.001477,-00.001118*6E
"
1678937277.059323,2911,1678937277,27567625,imu1_frame,38615,1678937277,1678937277,imu1_frame,0.308033262233121,-0.13536415598639812,-0.7008777495165138,0.6289375444865559,"(0.0, 0.0, 0.0, 0.0, 0.0, 0.0, 0.0, 0.0, 0.0)",0.000329,0.000698,0.00022,"(0.0, 0.0, 0.0, 0.0, 0.0, 0.0, 0.0, 0.0, 0.0)",0.493,-0.241,-9.739,"(0.0, 0.0, 0.0, 0.0, 0.0, 0.0, 0.0, 0.0, 0.0)",38615,1678937277,1678937277,imu1_frame,0.2429,0.0168,0.5098,"(0.0, 0.0, 0.0, 0.0, 0.0, 0.0, 0.0, 0.0, 0.0)","$VNYMR,+016.349,+002.877,+001.551,+00.2429,+00.0168,+00.5098,+00.493,-00.241,-09.739,+00.000329,+00.000698,+00.000228*61
"
1678937277.103462,2912,1678937277,52689313,imu1_frame,38616,1678937277,1678937277,imu1_frame,0.3092973937768712,-0.13607125492192862,-0.7007389634813351,0.6283189005957966,"(0.0, 0.0, 0.0, 0.0, 0.0, 0.0, 0.0, 0.0, 0.0)",0.001249,7.7e-05,0.00029,"(0.0, 0.0, 0.0, 0.0, 0.0, 0.0, 0.0, 0.0, 0.0)",0.487,-0.256,-9.715,"(0.0, 0.0, 0.0, 0.0, 0.0, 0.0, 0.0, 0.0, 0.0)",38616,1678937277,1678937277,imu1_frame,0.2448,0.0139,0.511,"(0.0, 0.0, 0.0, 0.0, 0.0, 0.0, 0.0, 0.0, 0.0)","$VNYMR,+016.352,+002.876,+001.551,+00.2448,+00.0139,+00.5110,+00.487,-00.256,-09.715,+00.001249,+00.000077,+00.000299*6E
"
1678937277.103504,2913,1678937277,77383279,imu1_frame,38617,1678937277,1678937277,imu1_frame,0.31017092393280343,-0.13727731250802017,-0.7008479078883793,0.6275039023191233,"(0.0, 0.0, 0.0, 0.0, 0.0, 0.0, 0.0, 0.0, 0.0)",0.000646,0.00174,-0.00087,"(0.0, 0.0, 0.0, 0.0, 0.0, 0.0, 0.0, 0.0, 0.0)",0.477,-0.246,-9.77,"(0.0, 0.0, 0.0, 0.0, 0.0, 0.0, 0.0, 0.0, 0.0)",38617,1678937277,1678937277,imu1_frame,0.2439,0.011,0.5099,"(0.0, 0.0, 0.0, 0.0, 0.0, 0.0, 0.0, 0.0, 0.0)","$VNYMR,+016.355,+002.876,+001.550,+00.2439,+00.0110,+00.5099,+00.477,-00.246,-09.770,+00.000646,+00.001740,-00.000873*68
"
1678937277.1474628,2914,1678937277,102292776,imu1_frame,38618,1678937277,1678937277,imu1_frame,0.3088473203400788,-0.13602978372963143,-0.7014350344761668,0.6277723497149591,"(0.0, 0.0, 0.0, 0.0, 0.0, 0.0, 0.0, 0.0, 0.0)",0.000322,-0.002264,0.00024,"(0.0, 0.0, 0.0, 0.0, 0.0, 0.0, 0.0, 0.0, 0.0)",0.519,-0.249,-9.781,"(0.0, 0.0, 0.0, 0.0, 0.0, 0.0, 0.0, 0.0, 0.0)",38618,1678937277,1678937277,imu1_frame,0.2429,0.011,0.5077,"(0.0, 0.0, 0.0, 0.0, 0.0, 0.0, 0.0, 0.0, 0.0)","$VNYMR,+016.351,+002.876,+001.549,+00.2429,+00.0110,+00.5077,+00.519,-00.249,-09.781,+00.000322,-00.002264,+00.000246*66
"
1678937277.1475084,2915,1678937277,127354621,imu1_frame,38619,1678937277,1678937277,imu1_frame,0.30916116789594383,-0.1363804842285341,-0.7013669319077585,0.6276178475896811,"(0.0, 0.0, 0.0, 0.0, 0.0, 0.0, 0.0, 0.0, 0.0)",0.000892,0.002039,-0.00058,"(0.0, 0.0, 0.0, 0.0, 0.0, 0.0, 0.0, 0.0, 0.0)",0.473,-0.224,-9.746,"(0.0, 0.0, 0.0, 0.0, 0.0, 0.0, 0.0, 0.0, 0.0)",38619,1678937277,1678937277,imu1_frame,0.2439,0.0091,0.5099,"(0.0, 0.0, 0.0, 0.0, 0.0, 0.0, 0.0, 0.0, 0.0)","$VNYMR,+016.352,+002.876,+001.549,+00.2439,+00.0091,+00.5099,+00.473,-00.224,-09.746,+00.000892,+00.002039,-00.000589*6F
"
1678937277.1954112,2916,1678937277,152359962,imu1_frame,38620,1678937277,1678937277,imu1_frame,0.3113786289178123,-0.13675189818663883,-0.7012884568277113,0.6265275477709035,"(0.0, 0.0, 0.0, 0.0, 0.0, 0.0, 0.0, 0.0, 0.0)",0.000441,-0.001911,0.00082,"(0.0, 0.0, 0.0, 0.0, 0.0, 0.0, 0.0, 0.0, 0.0)",0.497,-0.232,-9.733,"(0.0, 0.0, 0.0, 0.0, 0.0, 0.0, 0.0, 0.0, 0.0)",38620,1678937277,1678937277,imu1_frame,0.2448,0.0206,0.5022,"(0.0, 0.0, 0.0, 0.0, 0.0, 0.0, 0.0, 0.0, 0.0)","$VNYMR,+016.356,+002.873,+001.549,+00.2448,+00.0206,+00.5022,+00.497,-00.232,-09.733,+00.000441,-00.001911,+00.000822*65
"
1678937277.195451,2917,1678937277,177387714,imu1_frame,38621,1678937277,1678937277,imu1_frame,0.31075194578516047,-0.1360505414707483,-0.7014248580589071,0.6268386130841774,"(0.0, 0.0, 0.0, 0.0, 0.0, 0.0, 0.0, 0.0, 0.0)",0.0006,6.4e-05,-0.0008,"(0.0, 0.0, 0.0, 0.0, 0.0, 0.0, 0.0, 0.0, 0.0)",0.479,-0.27,-9.779,"(0.0, 0.0, 0.0, 0.0, 0.0, 0.0, 0.0, 0.0, 0.0)",38621,1678937277,1678937277,imu1_frame,0.2429,0.012,0.5088,"(0.0, 0.0, 0.0, 0.0, 0.0, 0.0, 0.0, 0.0, 0.0)","$VNYMR,+016.354,+002.873,+001.549,+00.2429,+00.0120,+00.5088,+00.479,-00.270,-09.779,+00.000600,+00.000064,-00.000804*66
"
1678937277.239429,2918,1678937277,202225923,imu1_frame,38622,1678937277,1678937277,imu1_frame,0.3104990768118531,-0.13623909022344338,-0.7010465622930314,0.6273459580575923,"(0.0, 0.0, 0.0, 0.0, 0.0, 0.0, 0.0, 0.0, 0.0)",0.000843,0.000881,-0.00138,"(0.0, 0.0, 0.0, 0.0, 0.0, 0.0, 0.0, 0.0, 0.0)",0.493,-0.251,-9.723,"(0.0, 0.0, 0.0, 0.0, 0.0, 0.0, 0.0, 0.0, 0.0)",38622,1678937277,1678937277,imu1_frame,0.2439,0.012,0.5121,"(0.0, 0.0, 0.0, 0.0, 0.0, 0.0, 0.0, 0.0, 0.0)","$VNYMR,+016.354,+002.874,+001.550,+00.2439,+00.0120,+00.5121,+00.493,-00.251,-09.723,+00.000843,+00.000881,-00.001387*69
"
1678937277.2394743,2919,1678937277,227313041,imu1_frame,38623,1678937277,1678937277,imu1_frame,0.31119469855646753,-0.13678448830462242,-0.7005963675289011,0.6273855219519343,"(0.0, 0.0, 0.0, 0.0, 0.0, 0.0, 0.0, 0.0, 0.0)",0.001417,-0.002995,-0.00125,"(0.0, 0.0, 0.0, 0.0, 0.0, 0.0, 0.0, 0.0, 0.0)",0.484,-0.272,-9.723,"(0.0, 0.0, 0.0, 0.0, 0.0, 0.0, 0.0, 0.0, 0.0)",38623,1678937277,1678937277,imu1_frame,0.2429,0.0101,0.511,"(0.0, 0.0, 0.0, 0.0, 0.0, 0.0, 0.0, 0.0, 0.0)","$VNYMR,+016.356,+002.874,+001.551,+00.2429,+00.0101,+00.5110,+00.484,-00.272,-09.723,+00.001417,-00.002995,-00.001254*6E
"
1678937277.287361,2920,1678937277,253091812,imu1_frame,38624,1678937277,1678937277,imu1_frame,0.3115768808483234,-0.13697899806417102,-0.7002141852370446,0.6275800317114841,"(0.0, 0.0, 0.0, 0.0, 0.0, 0.0, 0.0, 0.0, 0.0)",0.001099,-0.001671,-0.00161,"(0.0, 0.0, 0.0, 0.0, 0.0, 0.0, 0.0, 0.0, 0.0)",0.495,-0.256,-9.747,"(0.0, 0.0, 0.0, 0.0, 0.0, 0.0, 0.0, 0.0, 0.0)",38624,1678937277,1678937277,imu1_frame,0.2448,0.011,0.5132,"(0.0, 0.0, 0.0, 0.0, 0.0, 0.0, 0.0, 0.0, 0.0)","$VNYMR,+016.357,+002.874,+001.552,+00.2448,+00.0110,+00.5132,+00.495,-00.256,-09.747,+00.001099,-00.001671,-00.001614*6B
"
1678937277.2876668,2921,1678937277,277349710,imu1_frame,38625,1678937277,1678937277,imu1_frame,0.31031457167593596,-0.1362727515055157,-0.7003537453387858,0.6282031798651064,"(0.0, 0.0, 0.0, 0.0, 0.0, 0.0, 0.0, 0.0, 0.0)",7.3e-05,-0.003474,2e-05,"(0.0, 0.0, 0.0, 0.0, 0.0, 0.0, 0.0, 0.0, 0.0)",0.49,-0.269,-9.737,"(0.0, 0.0, 0.0, 0.0, 0.0, 0.0, 0.0, 0.0, 0.0)",38625,1678937277,1678937277,imu1_frame,0.2429,0.0216,0.5043,"(0.0, 0.0, 0.0, 0.0, 0.0, 0.0, 0.0, 0.0, 0.0)","$VNYMR,+016.354,+002.875,+001.552,+00.2429,+00.0216,+00.5043,+00.490,-00.269,-09.737,+00.000073,-00.003474,+00.000020*64
"
1678937277.331476,2922,1678937277,302317619,imu1_frame,38626,1678937277,1678937277,imu1_frame,0.31107943713670044,-0.13666202594347676,-0.6995888798780221,0.6285924543030664,"(0.0, 0.0, 0.0, 0.0, 0.0, 0.0, 0.0, 0.0, 0.0)",0.001883,0.000475,-0.00063,"(0.0, 0.0, 0.0, 0.0, 0.0, 0.0, 0.0, 0.0, 0.0)",0.512,-0.272,-9.738,"(0.0, 0.0, 0.0, 0.0, 0.0, 0.0, 0.0, 0.0, 0.0)",38626,1678937277,1678937277,imu1_frame,0.2448,0.0168,0.5132,"(0.0, 0.0, 0.0, 0.0, 0.0, 0.0, 0.0, 0.0, 0.0)","$VNYMR,+016.356,+002.875,+001.554,+00.2448,+00.0168,+00.5132,+00.512,-00.272,-09.738,+00.001883,+00.000475,-00.000634*63
"
1678937277.375421,2923,1678937277,327550411,imu1_frame,38627,1678937277,1678937277,imu1_frame,0.31178199874444373,-0.13651147881681658,-0.6992720278016804,0.628629646568066,"(0.0, 0.0, 0.0, 0.0, 0.0, 0.0, 0.0, 0.0, 0.0)",-6.1e-05,-0.000577,0.00066,"(0.0, 0.0, 0.0, 0.0, 0.0, 0.0, 0.0, 0.0, 0.0)",0.461,-0.27,-9.725,"(0.0, 0.0, 0.0, 0.0, 0.0, 0.0, 0.0, 0.0, 0.0)",38627,1678937277,1678937277,imu1_frame,0.2429,0.0139,0.5109,"(0.0, 0.0, 0.0, 0.0, 0.0, 0.0, 0.0, 0.0, 0.0)","$VNYMR,+016.357,+002.874,+001.555,+00.2429,+00.0139,+00.5109,+00.461,-00.270,-09.725,-00.000061,-00.000577,+00.000663*60
"
1678937277.3754604,2924,1678937277,352757692,imu1_frame,38628,1678937277,1678937277,imu1_frame,0.3126616024254113,-0.1370224516346466,-0.6995152014186568,0.6278105232480744,"(0.0, 0.0, 0.0, 0.0, 0.0, 0.0, 0.0, 0.0, 0.0)",0.000559,-0.001026,-0.00033,"(0.0, 0.0, 0.0, 0.0, 0.0, 0.0, 0.0, 0.0, 0.0)",0.459,-0.266,-9.715,"(0.0, 0.0, 0.0, 0.0, 0.0, 0.0, 0.0, 0.0, 0.0)",38628,1678937277,1678937277,imu1_frame,0.2458,0.011,0.5154,"(0.0, 0.0, 0.0, 0.0, 0.0, 0.0, 0.0, 0.0, 0.0)","$VNYMR,+016.359,+002.873,+001.554,+00.2458,+00.0110,+00.5154,+00.459,-00.266,-09.715,+00.000559,-00.001026,-00.000335*6A
"
1678937277.41944,2925,1678937277,377270460,imu1_frame,38629,1678937277,1678937277,imu1_frame,0.3123476580941668,-0.136672676920704,-0.6995836252022212,0.6279667755664599,"(0.0, 0.0, 0.0, 0.0, 0.0, 0.0, 0.0, 0.0, 0.0)",-0.000574,-0.001939,-0.00055,"(0.0, 0.0, 0.0, 0.0, 0.0, 0.0, 0.0, 0.0, 0.0)",0.512,-0.265,-9.747,"(0.0, 0.0, 0.0, 0.0, 0.0, 0.0, 0.0, 0.0, 0.0)",38629,1678937277,1678937277,imu1_frame,0.2439,0.0148,0.511,"(0.0, 0.0, 0.0, 0.0, 0.0, 0.0, 0.0, 0.0, 0.0)","$VNYMR,+016.358,+002.873,+001.554,+00.2439,+00.0148,+00.5110,+00.512,-00.265,-09.747,-00.000574,-00.001939,-00.000559*69
"
1678937277.4194849,2926,1678937277,402907848,imu1_frame,38630,1678937277,1678937277,imu1_frame,0.3117137040351303,-0.13666735274575886,-0.6995862552028663,0.6282799319900292,"(0.0, 0.0, 0.0, 0.0, 0.0, 0.0, 0.0, 0.0, 0.0)",0.000785,0.000357,-0.00054,"(0.0, 0.0, 0.0, 0.0, 0.0, 0.0, 0.0, 0.0, 0.0)",0.502,-0.269,-9.736,"(0.0, 0.0, 0.0, 0.0, 0.0, 0.0, 0.0, 0.0, 0.0)",38630,1678937277,1678937277,imu1_frame,0.2458,0.0215,0.5066,"(0.0, 0.0, 0.0, 0.0, 0.0, 0.0, 0.0, 0.0, 0.0)","$VNYMR,+016.357,+002.874,+001.554,+00.2458,+00.0215,+00.5066,+00.502,-00.269,-09.736,+00.000785,+00.000357,-00.000548*69
"
1678937277.4633431,2927,1678937277,427242279,imu1_frame,38631,1678937277,1678937277,imu1_frame,0.31290056739038197,-0.1382227185437851,-0.6996252617047584,0.6273055142350424,"(0.0, 0.0, 0.0, 0.0, 0.0, 0.0, 0.0, 0.0, 0.0)",0.00037,0.000263,0.00075,"(0.0, 0.0, 0.0, 0.0, 0.0, 0.0, 0.0, 0.0, 0.0)",0.509,-0.243,-9.735,"(0.0, 0.0, 0.0, 0.0, 0.0, 0.0, 0.0, 0.0, 0.0)",38631,1678937277,1678937277,imu1_frame,0.243,0.0158,0.5131,"(0.0, 0.0, 0.0, 0.0, 0.0, 0.0, 0.0, 0.0, 0.0)","$VNYMR,+016.361,+002.874,+001.553,+00.2430,+00.0158,+00.5131,+00.509,-00.243,-09.735,+00.000370,+00.000263,+00.000754*6D
"
1678937277.4638193,2928,1678937277,452726364,imu1_frame,38632,1678937277,1678937277,imu1_frame,0.3130754519239955,-0.13888565872479003,-0.7001828619982279,0.6264491160239095,"(0.0, 0.0, 0.0, 0.0, 0.0, 0.0, 0.0, 0.0, 0.0)",0.001623,-0.003052,-0.00133,"(0.0, 0.0, 0.0, 0.0, 0.0, 0.0, 0.0, 0.0, 0.0)",0.498,-0.247,-9.753,"(0.0, 0.0, 0.0, 0.0, 0.0, 0.0, 0.0, 0.0, 0.0)",38632,1678937277,1678937277,imu1_frame,0.242,0.0139,0.5142,"(0.0, 0.0, 0.0, 0.0, 0.0, 0.0, 0.0, 0.0, 0.0)","$VNYMR,+016.362,+002.874,+001.551,+00.2420,+00.0139,+00.5142,+00.498,-00.247,-09.753,+00.001623,-00.003052,-00.001337*62
"
1678937277.5073633,2929,1678937277,477268934,imu1_frame,38633,1678937277,1678937277,imu1_frame,0.31362469877391763,-0.14043631142916463,-0.7002197932160974,0.625787049993483,"(0.0, 0.0, 0.0, 0.0, 0.0, 0.0, 0.0, 0.0, 0.0)",-0.000415,-0.002921,0.00126,"(0.0, 0.0, 0.0, 0.0, 0.0, 0.0, 0.0, 0.0, 0.0)",0.505,-0.21,-9.724,"(0.0, 0.0, 0.0, 0.0, 0.0, 0.0, 0.0, 0.0, 0.0)",38633,1678937277,1678937277,imu1_frame,0.242,0.012,0.5142,"(0.0, 0.0, 0.0, 0.0, 0.0, 0.0, 0.0, 0.0, 0.0)","$VNYMR,+016.365,+002.875,+001.550,+00.2420,+00.0120,+00.5142,+00.505,-00.210,-09.724,-00.000415,-00.002921,+00.001264*67
"
1678937277.555407,2930,1678937277,502176046,imu1_frame,38634,1678937277,1678937277,imu1_frame,0.3141872802838718,-0.14060000327190014,-0.7005291621572217,0.6251214961550005,"(0.0, 0.0, 0.0, 0.0, 0.0, 0.0, 0.0, 0.0, 0.0)",0.000441,0.000679,-0.00017,"(0.0, 0.0, 0.0, 0.0, 0.0, 0.0, 0.0, 0.0, 0.0)",0.484,-0.246,-9.741,"(0.0, 0.0, 0.0, 0.0, 0.0, 0.0, 0.0, 0.0, 0.0)",38634,1678937277,1678937277,imu1_frame,0.2439,0.0158,0.5142,"(0.0, 0.0, 0.0, 0.0, 0.0, 0.0, 0.0, 0.0, 0.0)","$VNYMR,+016.366,+002.874,+001.549,+00.2439,+00.0158,+00.5142,+00.484,-00.246,-09.741,+00.000441,+00.000679,-00.000177*65
"
1678937277.555458,2931,1678937277,527244329,imu1_frame,38635,1678937277,1678937277,imu1_frame,0.313562001798277,-0.13989940392650246,-0.7006694118725083,0.6254353708221976,"(0.0, 0.0, 0.0, 0.0, 0.0, 0.0, 0.0, 0.0, 0.0)",0.000571,-0.000742,0.00012,"(0.0, 0.0, 0.0, 0.0, 0.0, 0.0, 0.0, 0.0, 0.0)",0.486,-0.254,-9.737,"(0.0, 0.0, 0.0, 0.0, 0.0, 0.0, 0.0, 0.0, 0.0)",38635,1678937277,1678937277,imu1_frame,0.242,0.0178,0.5087,"(0.0, 0.0, 0.0, 0.0, 0.0, 0.0, 0.0, 0.0, 0.0)","$VNYMR,+016.364,+002.874,+001.549,+00.2420,+00.0178,+00.5087,+00.486,-00.254,-09.737,+00.000571,-00.000742,+00.000121*6D
"
1678937277.5994582,2932,1678937277,552256345,imu1_frame,38636,1678937277,1678937277,imu1_frame,0.3132568075389721,-0.13885514501824392,-0.700875045952846,0.6255905939135031,"(0.0, 0.0, 0.0, 0.0, 0.0, 0.0, 0.0, 0.0, 0.0)",0.000236,0.001329,-0.00035,"(0.0, 0.0, 0.0, 0.0, 0.0, 0.0, 0.0, 0.0, 0.0)",0.503,-0.248,-9.764,"(0.0, 0.0, 0.0, 0.0, 0.0, 0.0, 0.0, 0.0, 0.0)",38636,1678937277,1678937277,imu1_frame,0.2448,0.0168,0.5154,"(0.0, 0.0, 0.0, 0.0, 0.0, 0.0, 0.0, 0.0, 0.0)","$VNYMR,+016.362,+002.873,+001.549,+00.2448,+00.0168,+00.5154,+00.503,-00.248,-09.764,+00.000236,+00.001329,-00.000350*63
"
1678937277.5995007,2933,1678937277,577244043,imu1_frame,38637,1678937277,1678937277,imu1_frame,0.31419484066410536,-0.13990630098092222,-0.7006659748291459,0.6251200050891156,"(0.0, 0.0, 0.0, 0.0, 0.0, 0.0, 0.0, 0.0, 0.0)",0.000611,-1e-06,-0.00091,"(0.0, 0.0, 0.0, 0.0, 0.0, 0.0, 0.0, 0.0, 0.0)",0.495,-0.247,-9.737,"(0.0, 0.0, 0.0, 0.0, 0.0, 0.0, 0.0, 0.0, 0.0)",38637,1678937277,1678937277,imu1_frame,0.242,0.0139,0.5087,"(0.0, 0.0, 0.0, 0.0, 0.0, 0.0, 0.0, 0.0, 0.0)","$VNYMR,+016.365,+002.873,+001.549,+00.2420,+00.0139,+00.5087,+00.495,-00.247,-09.737,+00.000611,-00.000001,-00.000915*62
"
1678937277.6473434,2934,1678937277,602136373,imu1_frame,38638,1678937277,1678937277,imu1_frame,0.31551506569391136,-0.14114961230127862,-0.7000724283643666,0.6248404798917757,"(0.0, 0.0, 0.0, 0.0, 0.0, 0.0, 0.0, 0.0, 0.0)",-0.000238,-0.001403,0.0008,"(0.0, 0.0, 0.0, 0.0, 0.0, 0.0, 0.0, 0.0, 0.0)",0.495,-0.266,-9.733,"(0.0, 0.0, 0.0, 0.0, 0.0, 0.0, 0.0, 0.0, 0.0)",38638,1678937277,1678937277,imu1_frame,0.2439,0.0168,0.512,"(0.0, 0.0, 0.0, 0.0, 0.0, 0.0, 0.0, 0.0, 0.0)","$VNYMR,+016.369,+002.873,+001.550,+00.2439,+00.0168,+00.5120,+00.495,-00.266,-09.733,-00.000238,-00.001403,+00.000803*6F
"
1678937277.647389,2935,1678937277,627463817,imu1_frame,38639,1678937277,1678937277,imu1_frame,0.316139748312143,-0.1418496140381636,-0.6999309287394051,0.6245246524584539,"(0.0, 0.0, 0.0, 0.0, 0.0, 0.0, 0.0, 0.0, 0.0)",-0.000592,-0.001134,-0.00056,"(0.0, 0.0, 0.0, 0.0, 0.0, 0.0, 0.0, 0.0, 0.0)",0.505,-0.24,-9.743,"(0.0, 0.0, 0.0, 0.0, 0.0, 0.0, 0.0, 0.0, 0.0)",38639,1678937277,1678937277,imu1_frame,0.2411,0.013,0.5142,"(0.0, 0.0, 0.0, 0.0, 0.0, 0.0, 0.0, 0.0, 0.0)","$VNYMR,+016.371,+002.873,+001.550,+00.2411,+00.0130,+00.5142,+00.505,-00.240,-09.743,-00.000592,-00.001134,-00.000565*63
"
1678937277.6914375,2936,1678937277,652229547,imu1_frame,38640,1678937277,1678937277,imu1_frame,0.3167569070108256,-0.14324262710811894,-0.6996491420611856,0.6242096520025517,"(0.0, 0.0, 0.0, 0.0, 0.0, 0.0, 0.0, 0.0, 0.0)",0.002047,0.001509,3e-05,"(0.0, 0.0, 0.0, 0.0, 0.0, 0.0, 0.0, 0.0, 0.0)",0.507,-0.269,-9.735,"(0.0, 0.0, 0.0, 0.0, 0.0, 0.0, 0.0, 0.0, 0.0)",38640,1678937277,1678937277,imu1_frame,0.243,0.012,0.5153,"(0.0, 0.0, 0.0, 0.0, 0.0, 0.0, 0.0, 0.0, 0.0)","$VNYMR,+016.374,+002.874,+001.550,+00.2430,+00.0120,+00.5153,+00.507,-00.269,-09.735,+00.002047,+00.001509,+00.000033*6E
"
1678937277.691478,2937,1678937277,677208662,imu1_frame,38641,1678937277,1678937277,imu1_frame,0.31650930892633,-0.1434276312293904,-0.6992684700957502,0.6247191198393496,"(0.0, 0.0, 0.0, 0.0, 0.0, 0.0, 0.0, 0.0, 0.0)",0.000962,4.9e-05,0.00025,"(0.0, 0.0, 0.0, 0.0, 0.0, 0.0, 0.0, 0.0, 0.0)",0.495,-0.244,-9.773,"(0.0, 0.0, 0.0, 0.0, 0.0, 0.0, 0.0, 0.0, 0.0)",38641,1678937277,1678937277,imu1_frame,0.2439,0.011,0.5132,"(0.0, 0.0, 0.0, 0.0, 0.0, 0.0, 0.0, 0.0, 0.0)","$VNYMR,+016.374,+002.875,+001.551,+00.2439,+00.0110,+00.5132,+00.495,-00.244,-09.773,+00.000962,+00.000049,+00.000255*6A
"
1678937277.7353485,2938,1678937277,702275276,imu1_frame,38642,1678937277,1678937277,imu1_frame,0.316807913458004,-0.14516285847739746,-0.6989140283410501,0.6245635848151435,"(0.0, 0.0, 0.0, 0.0, 0.0, 0.0, 0.0, 0.0, 0.0)",0.001107,0.001353,-0.00019,"(0.0, 0.0, 0.0, 0.0, 0.0, 0.0, 0.0, 0.0, 0.0)",0.505,-0.275,-9.771,"(0.0, 0.0, 0.0, 0.0, 0.0, 0.0, 0.0, 0.0, 0.0)",38642,1678937277,1678937277,imu1_frame,0.243,0.0139,0.5153,"(0.0, 0.0, 0.0, 0.0, 0.0, 0.0, 0.0, 0.0, 0.0)","$VNYMR,+016.377,+002.877,+001.551,+00.2430,+00.0139,+00.5153,+00.505,-00.275,-09.771,+00.001107,+00.001353,-00.000196*6F
"
